frame_id,acc_x,acc_y,acc_z,gyro_x,gyro_y,gyro_z,curr_v,temp
1,0.000000,0.000000,0.000000,0.000000,0.000000,0.000000,0.000000,0.000000
1,1.000000,1.000000,1.000000,1.000000,1.000000,1.000000,1.000000,1.000000
1,2.000000,2.000000,2.000000,2.000000,2.000000,2.000000,2.000000,2.000000
1,3.000000,3.000000,3.000000,3.000000,3.000000,3.000000,3.000000,3.000000
1,4.000000,4.000000,4.000000,4.000000,4.000000,4.000000,4.000000,4.000000
1,5.000000,5.000000,5.000000,5.000000,5.000000,5.000000,5.000000,5.000000
1,6.000000,6.000000,6.000000,6.000000,6.000000,6.000000,6.000000,6.000000
1,7.000000,7.000000,7.000000,7.000000,7.000000,7.000000,7.000000,7.000000
1,8.000000,8.000000,8.000000,8.000000,8.000000,8.000000,8.000000,8.000000
1,9.000000,9.000000,9.000000,9.000000,9.000000,9.000000,9.000000,9.000000
1,10.000000,10.000000,10.000000,10.000000,10.000000,10.000000,10.000000,10.000000
1,11.000000,11.000000,11.000000,11.000000,11.000000,11.000000,11.000000,11.000000
1,12.000000,12.000000,12.000000,12.000000,12.000000,12.000000,12.000000,12.000000
1,13.000000,13.000000,13.000000,13.000000,13.000000,13.000000,13.000000,13.000000
1,14.000000,14.000000,14.000000,14.000000,14.000000,14.000000,14.000000,14.000000
1,15.000000,15.000000,15.000000,15.000000,15.000000,15.000000,15.000000,15.000000
1,16.000000,16.000000,16.000000,16.000000,16.000000,16.000000,16.000000,16.000000
1,17.000000,17.000000,17.000000,17.000000,17.000000,17.000000,17.000000,17.000000
1,18.000000,18.000000,18.000000,18.000000,18.000000,18.000000,18.000000,18.000000
1,19.000000,19.000000,19.000000,19.000000,19.000000,19.000000,19.000000,19.000000
1,20.000000,20.000000,20.000000,20.000000,20.000000,20.000000,20.000000,20.000000
1,21.000000,21.000000,21.000000,21.000000,21.000000,21.000000,21.000000,21.000000
1,22.000000,22.000000,22.000000,22.000000,22.000000,22.000000,22.000000,22.000000
1,23.000000,23.000000,23.000000,23.000000,23.000000,23.000000,23.000000,23.000000
1,24.000000,24.000000,24.000000,24.000000,24.000000,24.000000,24.000000,24.000000
1,25.000000,25.000000,25.000000,25.000000,25.000000,25.000000,25.000000,25.000000
1,26.000000,26.000000,26.000000,26.000000,26.000000,26.000000,26.000000,26.000000
1,27.000000,27.000000,27.000000,27.000000,27.000000,27.000000,27.000000,27.000000
1,28.000000,28.000000,28.000000,28.000000,28.000000,28.000000,28.000000,28.000000
1,29.000000,29.000000,29.000000,29.000000,29.000000,29.000000,29.000000,29.000000
1,30.000000,30.000000,30.000000,30.000000,30.000000,30.000000,30.000000,30.000000
1,31.000000,31.000000,31.000000,31.000000,31.000000,31.000000,31.000000,31.000000
1,32.000000,32.000000,32.000000,32.000000,32.000000,32.000000,32.000000,32.000000
1,33.000000,33.000000,33.000000,33.000000,33.000000,33.000000,33.000000,33.000000
1,34.000000,34.000000,34.000000,34.000000,34.000000,34.000000,34.000000,34.000000
1,35.000000,35.000000,35.000000,35.000000,35.000000,35.000000,35.000000,35.000000
1,36.000000,36.000000,36.000000,36.000000,36.000000,36.000000,36.000000,36.000000
1,37.000000,37.000000,37.000000,37.000000,37.000000,37.000000,37.000000,37.000000
1,38.000000,38.000000,38.000000,38.000000,38.000000,38.000000,38.000000,38.000000
1,39.000000,39.000000,39.000000,39.000000,39.000000,39.000000,39.000000,39.000000
1,40.000000,40.000000,40.000000,40.000000,40.000000,40.000000,40.000000,40.000000
1,41.000000,41.000000,41.000000,41.000000,41.000000,41.000000,41.000000,41.000000
1,42.000000,42.000000,42.000000,42.000000,42.000000,42.000000,42.000000,42.000000
1,43.000000,43.000000,43.000000,43.000000,43.000000,43.000000,43.000000,43.000000
1,44.000000,44.000000,44.000000,44.000000,44.000000,44.000000,44.000000,44.000000
1,45.000000,45.000000,45.000000,45.000000,45.000000,45.000000,45.000000,45.000000
1,46.000000,46.000000,46.000000,46.000000,46.000000,46.000000,46.000000,46.000000
1,47.000000,47.000000,47.000000,47.000000,47.000000,47.000000,47.000000,47.000000
1,48.000000,48.000000,48.000000,48.000000,48.000000,48.000000,48.000000,48.000000
1,49.000000,49.000000,49.000000,49.000000,49.000000,49.000000,49.000000,49.000000
2,50.000000,50.000000,50.000000,50.000000,50.000000,50.000000,50.000000,50.000000
2,51.000000,51.000000,51.000000,51.000000,51.000000,51.000000,51.000000,51.000000
2,52.000000,52.000000,52.000000,52.000000,52.000000,52.000000,52.000000,52.000000
2,53.000000,53.000000,53.000000,53.000000,53.000000,53.000000,53.000000,53.000000
2,54.000000,54.000000,54.000000,54.000000,54.000000,54.000000,54.000000,54.000000
2,55.000000,55.000000,55.000000,55.000000,55.000000,55.000000,55.000000,55.000000
2,56.000000,56.000000,56.000000,56.000000,56.000000,56.000000,56.000000,56.000000
2,57.000000,57.000000,57.000000,57.000000,57.000000,57.000000,57.000000,57.000000
2,58.000000,58.000000,58.000000,58.000000,58.000000,58.000000,58.000000,58.000000
2,59.000000,59.000000,59.000000,59.000000,59.000000,59.000000,59.000000,59.000000
2,60.000000,60.000000,60.000000,60.000000,60.000000,60.000000,60.000000,60.000000
2,61.000000,61.000000,61.000000,61.000000,61.000000,61.000000,61.000000,61.000000
2,62.000000,62.000000,62.000000,62.000000,62.000000,62.000000,62.000000,62.000000
2,63.000000,63.000000,63.000000,63.000000,63.000000,63.000000,63.000000,63.000000
2,64.000000,64.000000,64.000000,64.000000,64.000000,64.000000,64.000000,64.000000
2,65.000000,65.000000,65.000000,65.000000,65.000000,65.000000,65.000000,65.000000
2,66.000000,66.000000,66.000000,66.000000,66.000000,66.000000,66.000000,66.000000
2,67.000000,67.000000,67.000000,67.000000,67.000000,67.000000,67.000000,67.000000
2,68.000000,68.000000,68.000000,68.000000,68.000000,68.000000,68.000000,68.000000
2,69.000000,69.000000,69.000000,69.000000,69.000000,69.000000,69.000000,69.000000
2,70.000000,70.000000,70.000000,70.000000,70.000000,70.000000,70.000000,70.000000
2,71.000000,71.000000,71.000000,71.000000,71.000000,71.000000,71.000000,71.000000
2,72.000000,72.000000,72.000000,72.000000,72.000000,72.000000,72.000000,72.000000
2,73.000000,73.000000,73.000000,73.000000,73.000000,73.000000,73.000000,73.000000
2,74.000000,74.000000,74.000000,74.000000,74.000000,74.000000,74.000000,74.000000
2,75.000000,75.000000,75.000000,75.000000,75.000000,75.000000,75.000000,75.000000
2,76.000000,76.000000,76.000000,76.000000,76.000000,76.000000,76.000000,76.000000
2,77.000000,77.000000,77.000000,77.000000,77.000000,77.000000,77.000000,77.000000
2,78.000000,78.000000,78.000000,78.000000,78.000000,78.000000,78.000000,78.000000
2,79.000000,79.000000,79.000000,79.000000,79.000000,79.000000,79.000000,79.000000
2,80.000000,80.000000,80.000000,80.000000,80.000000,80.000000,80.000000,80.000000
2,81.000000,81.000000,81.000000,81.000000,81.000000,81.000000,81.000000,81.000000
2,82.000000,82.000000,82.000000,82.000000,82.000000,82.000000,82.000000,82.000000
2,83.000000,83.000000,83.000000,83.000000,83.000000,83.000000,83.000000,83.000000
2,84.000000,84.000000,84.000000,84.000000,84.000000,84.000000,84.000000,84.000000
2,85.000000,85.000000,85.000000,85.000000,85.000000,85.000000,85.000000,85.000000
2,86.000000,86.000000,86.000000,86.000000,86.000000,86.000000,86.000000,86.000000
2,87.000000,87.000000,87.000000,87.000000,87.000000,87.000000,87.000000,87.000000
2,88.000000,88.000000,88.000000,88.000000,88.000000,88.000000,88.000000,88.000000
2,89.000000,89.000000,89.000000,89.000000,89.000000,89.000000,89.000000,89.000000
2,90.000000,90.000000,90.000000,90.000000,90.000000,90.000000,90.000000,90.000000
2,91.000000,91.000000,91.000000,91.000000,91.000000,91.000000,91.000000,91.000000
2,92.000000,92.000000,92.000000,92.000000,92.000000,92.000000,92.000000,92.000000
2,93.000000,93.000000,93.000000,93.000000,93.000000,93.000000,93.000000,93.000000
2,94.000000,94.000000,94.000000,94.000000,94.000000,94.000000,94.000000,94.000000
2,95.000000,95.000000,95.000000,95.000000,95.000000,95.000000,95.000000,95.000000
2,96.000000,96.000000,96.000000,96.000000,96.000000,96.000000,96.000000,96.000000
2,97.000000,97.000000,97.000000,97.000000,97.000000,97.000000,97.000000,97.000000
2,98.000000,98.000000,98.000000,98.000000,98.000000,98.000000,98.000000,98.000000
2,99.000000,99.000000,99.000000,99.000000,99.000000,99.000000,99.000000,99.000000
3,100.000000,100.000000,100.000000,100.000000,100.000000,100.000000,100.000000,100.000000
3,101.000000,101.000000,101.000000,101.000000,101.000000,101.000000,101.000000,101.000000
3,102.000000,102.000000,102.000000,102.000000,102.000000,102.000000,102.000000,102.000000
3,103.000000,103.000000,103.000000,103.000000,103.000000,103.000000,103.000000,103.000000
3,104.000000,104.000000,104.000000,104.000000,104.000000,104.000000,104.000000,104.000000
3,105.000000,105.000000,105.000000,105.000000,105.000000,105.000000,105.000000,105.000000
3,106.000000,106.000000,106.000000,106.000000,106.000000,106.000000,106.000000,106.000000
3,107.000000,107.000000,107.000000,107.000000,107.000000,107.000000,107.000000,107.000000
3,108.000000,108.000000,108.000000,108.000000,108.000000,108.000000,108.000000,108.000000
3,109.000000,109.000000,109.000000,109.000000,109.000000,109.000000,109.000000,109.000000
3,110.000000,110.000000,110.000000,110.000000,110.000000,110.000000,110.000000,110.000000
3,111.000000,111.000000,111.000000,111.000000,111.000000,111.000000,111.000000,111.000000
3,112.000000,112.000000,112.000000,112.000000,112.000000,112.000000,112.000000,112.000000
3,113.000000,113.000000,113.000000,113.000000,113.000000,113.000000,113.000000,113.000000
3,114.000000,114.000000,114.000000,114.000000,114.000000,114.000000,114.000000,114.000000
3,115.000000,115.000000,115.000000,115.000000,115.000000,115.000000,115.000000,115.000000
3,116.000000,116.000000,116.000000,116.000000,116.000000,116.000000,116.000000,116.000000
3,117.000000,117.000000,117.000000,117.000000,117.000000,117.000000,117.000000,117.000000
3,118.000000,118.000000,118.000000,118.000000,118.000000,118.000000,118.000000,118.000000
3,119.000000,119.000000,119.000000,119.000000,119.000000,119.000000,119.000000,119.000000
3,120.000000,120.000000,120.000000,120.000000,120.000000,120.000000,120.000000,120.000000
3,121.000000,121.000000,121.000000,121.000000,121.000000,121.000000,121.000000,121.000000
3,122.000000,122.000000,122.000000,122.000000,122.000000,122.000000,122.000000,122.000000
3,123.000000,123.000000,123.000000,123.000000,123.000000,123.000000,123.000000,123.000000
3,124.000000,124.000000,124.000000,124.000000,124.000000,124.000000,124.000000,124.000000
3,125.000000,125.000000,125.000000,125.000000,125.000000,125.000000,125.000000,125.000000
3,126.000000,126.000000,126.000000,126.000000,126.000000,126.000000,126.000000,126.000000
3,127.000000,127.000000,127.000000,127.000000,127.000000,127.000000,127.000000,127.000000
3,128.000000,128.000000,128.000000,128.000000,128.000000,128.000000,128.000000,128.000000
3,129.000000,129.000000,129.000000,129.000000,129.000000,129.000000,129.000000,129.000000
3,130.000000,130.000000,130.000000,130.000000,130.000000,130.000000,130.000000,130.000000
3,131.000000,131.000000,131.000000,131.000000,131.000000,131.000000,131.000000,131.000000
3,132.000000,132.000000,132.000000,132.000000,132.000000,132.000000,132.000000,132.000000
3,133.000000,133.000000,133.000000,133.000000,133.000000,133.000000,133.000000,133.000000
3,134.000000,134.000000,134.000000,134.000000,134.000000,134.000000,134.000000,134.000000
3,135.000000,135.000000,135.000000,135.000000,135.000000,135.000000,135.000000,135.000000
3,136.000000,136.000000,136.000000,136.000000,136.000000,136.000000,136.000000,136.000000
3,137.000000,137.000000,137.000000,137.000000,137.000000,137.000000,137.000000,137.000000
3,138.000000,138.000000,138.000000,138.000000,138.000000,138.000000,138.000000,138.000000
3,139.000000,139.000000,139.000000,139.000000,139.000000,139.000000,139.000000,139.000000
3,140.000000,140.000000,140.000000,140.000000,140.000000,140.000000,140.000000,140.000000
3,141.000000,141.000000,141.000000,141.000000,141.000000,141.000000,141.000000,141.000000
3,142.000000,142.000000,142.000000,142.000000,142.000000,142.000000,142.000000,142.000000
3,143.000000,143.000000,143.000000,143.000000,143.000000,143.000000,143.000000,143.000000
3,144.000000,144.000000,144.000000,144.000000,144.000000,144.000000,144.000000,144.000000
3,145.000000,145.000000,145.000000,145.000000,145.000000,145.000000,145.000000,145.000000
3,146.000000,146.000000,146.000000,146.000000,146.000000,146.000000,146.000000,146.000000
3,147.000000,147.000000,147.000000,147.000000,147.000000,147.000000,147.000000,147.000000
3,148.000000,148.000000,148.000000,148.000000,148.000000,148.000000,148.000000,148.000000
3,149.000000,149.000000,149.000000,149.000000,149.000000,149.000000,149.000000,149.000000
4,150.000000,150.000000,150.000000,150.000000,150.000000,150.000000,150.000000,150.000000
4,151.000000,151.000000,151.000000,151.000000,151.000000,151.000000,151.000000,151.000000
4,152.000000,152.000000,152.000000,152.000000,152.000000,152.000000,152.000000,152.000000
4,153.000000,153.000000,153.000000,153.000000,153.000000,153.000000,153.000000,153.000000
4,154.000000,154.000000,154.000000,154.000000,154.000000,154.000000,154.000000,154.000000
4,155.000000,155.000000,155.000000,155.000000,155.000000,155.000000,155.000000,155.000000
4,156.000000,156.000000,156.000000,156.000000,156.000000,156.000000,156.000000,156.000000
4,157.000000,157.000000,157.000000,157.000000,157.000000,157.000000,157.000000,157.000000
4,158.000000,158.000000,158.000000,158.000000,158.000000,158.000000,158.000000,158.000000
4,159.000000,159.000000,159.000000,159.000000,159.000000,159.000000,159.000000,159.000000
4,160.000000,160.000000,160.000000,160.000000,160.000000,160.000000,160.000000,160.000000
4,161.000000,161.000000,161.000000,161.000000,161.000000,161.000000,161.000000,161.000000
4,162.000000,162.000000,162.000000,162.000000,162.000000,162.000000,162.000000,162.000000
4,163.000000,163.000000,163.000000,163.000000,163.000000,163.000000,163.000000,163.000000
4,164.000000,164.000000,164.000000,164.000000,164.000000,164.000000,164.000000,164.000000
4,165.000000,165.000000,165.000000,165.000000,165.000000,165.000000,165.000000,165.000000
4,166.000000,166.000000,166.000000,166.000000,166.000000,166.000000,166.000000,166.000000
4,167.000000,167.000000,167.000000,167.000000,167.000000,167.000000,167.000000,167.000000
4,168.000000,168.000000,168.000000,168.000000,168.000000,168.000000,168.000000,168.000000
4,169.000000,169.000000,169.000000,169.000000,169.000000,169.000000,169.000000,169.000000
4,170.000000,170.000000,170.000000,170.000000,170.000000,170.000000,170.000000,170.000000
4,171.000000,171.000000,171.000000,171.000000,171.000000,171.000000,171.000000,171.000000
4,172.000000,172.000000,172.000000,172.000000,172.000000,172.000000,172.000000,172.000000
4,173.000000,173.000000,173.000000,173.000000,173.000000,173.000000,173.000000,173.000000
4,174.000000,174.000000,174.000000,174.000000,174.000000,174.000000,174.000000,174.000000
4,175.000000,175.000000,175.000000,175.000000,175.000000,175.000000,175.000000,175.000000
4,176.000000,176.000000,176.000000,176.000000,176.000000,176.000000,176.000000,176.000000
4,177.000000,177.000000,177.000000,177.000000,177.000000,177.000000,177.000000,177.000000
4,178.000000,178.000000,178.000000,178.000000,178.000000,178.000000,178.000000,178.000000
4,179.000000,179.000000,179.000000,179.000000,179.000000,179.000000,179.000000,179.000000
4,180.000000,180.000000,180.000000,180.000000,180.000000,180.000000,180.000000,180.000000
4,181.000000,181.000000,181.000000,181.000000,181.000000,181.000000,181.000000,181.000000
4,182.000000,182.000000,182.000000,182.000000,182.000000,182.000000,182.000000,182.000000
4,183.000000,183.000000,183.000000,183.000000,183.000000,183.000000,183.000000,183.000000
4,184.000000,184.000000,184.000000,184.000000,184.000000,184.000000,184.000000,184.000000
4,185.000000,185.000000,185.000000,185.000000,185.000000,185.000000,185.000000,185.000000
4,186.000000,186.000000,186.000000,186.000000,186.000000,186.000000,186.000000,186.000000
4,187.000000,187.000000,187.000000,187.000000,187.000000,187.000000,187.000000,187.000000
4,188.000000,188.000000,188.000000,188.000000,188.000000,188.000000,188.000000,188.000000
4,189.000000,189.000000,189.000000,189.000000,189.000000,189.000000,189.000000,189.000000
4,190.000000,190.000000,190.000000,190.000000,190.000000,190.000000,190.000000,190.000000
4,191.000000,191.000000,191.000000,191.000000,191.000000,191.000000,191.000000,191.000000
4,192.000000,192.000000,192.000000,192.000000,192.000000,192.000000,192.000000,192.000000
4,193.000000,193.000000,193.000000,193.000000,193.000000,193.000000,193.000000,193.000000
4,194.000000,194.000000,194.000000,194.000000,194.000000,194.000000,194.000000,194.000000
4,195.000000,195.000000,195.000000,195.000000,195.000000,195.000000,195.000000,195.000000
4,196.000000,196.000000,196.000000,196.000000,196.000000,196.000000,196.000000,196.000000
4,197.000000,197.000000,197.000000,197.000000,197.000000,197.000000,197.000000,197.000000
4,198.000000,198.000000,198.000000,198.000000,198.000000,198.000000,198.000000,198.000000
4,199.000000,199.000000,199.000000,199.000000,199.000000,199.000000,199.000000,199.000000
5,200.000000,200.000000,200.000000,200.000000,200.000000,200.000000,200.000000,200.000000
5,201.000000,201.000000,201.000000,201.000000,201.000000,201.000000,201.000000,201.000000
5,202.000000,202.000000,202.000000,202.000000,202.000000,202.000000,202.000000,202.000000
5,203.000000,203.000000,203.000000,203.000000,203.000000,203.000000,203.000000,203.000000
5,204.000000,204.000000,204.000000,204.000000,204.000000,204.000000,204.000000,204.000000
5,205.000000,205.000000,205.000000,205.000000,205.000000,205.000000,205.000000,205.000000
5,206.000000,206.000000,206.000000,206.000000,206.000000,206.000000,206.000000,206.000000
5,207.000000,207.000000,207.000000,207.000000,207.000000,207.000000,207.000000,207.000000
5,208.000000,208.000000,208.000000,208.000000,208.000000,208.000000,208.000000,208.000000
5,209.000000,209.000000,209.000000,209.000000,209.000000,209.000000,209.000000,209.000000
5,210.000000,210.000000,210.000000,210.000000,210.000000,210.000000,210.000000,210.000000
5,211.000000,211.000000,211.000000,211.000000,211.000000,211.000000,211.000000,211.000000
5,212.000000,212.000000,212.000000,212.000000,212.000000,212.000000,212.000000,212.000000
5,213.000000,213.000000,213.000000,213.000000,213.000000,213.000000,213.000000,213.000000
5,214.000000,214.000000,214.000000,214.000000,214.000000,214.000000,214.000000,214.000000
5,215.000000,215.000000,215.000000,215.000000,215.000000,215.000000,215.000000,215.000000
5,216.000000,216.000000,216.000000,216.000000,216.000000,216.000000,216.000000,216.000000
5,217.000000,217.000000,217.000000,217.000000,217.000000,217.000000,217.000000,217.000000
5,218.000000,218.000000,218.000000,218.000000,218.000000,218.000000,218.000000,218.000000
5,219.000000,219.000000,219.000000,219.000000,219.000000,219.000000,219.000000,219.000000
5,220.000000,220.000000,220.000000,220.000000,220.000000,220.000000,220.000000,220.000000
5,221.000000,221.000000,221.000000,221.000000,221.000000,221.000000,221.000000,221.000000
5,222.000000,222.000000,222.000000,222.000000,222.000000,222.000000,222.000000,222.000000
5,223.000000,223.000000,223.000000,223.000000,223.000000,223.000000,223.000000,223.000000
5,224.000000,224.000000,224.000000,224.000000,224.000000,224.000000,224.000000,224.000000
5,225.000000,225.000000,225.000000,225.000000,225.000000,225.000000,225.000000,225.000000
5,226.000000,226.000000,226.000000,226.000000,226.000000,226.000000,226.000000,226.000000
5,227.000000,227.000000,227.000000,227.000000,227.000000,227.000000,227.000000,227.000000
5,228.000000,228.000000,228.000000,228.000000,228.000000,228.000000,228.000000,228.000000
5,229.000000,229.000000,229.000000,229.000000,229.000000,229.000000,229.000000,229.000000
5,230.000000,230.000000,230.000000,230.000000,230.000000,230.000000,230.000000,230.000000
5,231.000000,231.000000,231.000000,231.000000,231.000000,231.000000,231.000000,231.000000
5,232.000000,232.000000,232.000000,232.000000,232.000000,232.000000,232.000000,232.000000
5,233.000000,233.000000,233.000000,233.000000,233.000000,233.000000,233.000000,233.000000
5,234.000000,234.000000,234.000000,234.000000,234.000000,234.000000,234.000000,234.000000
5,235.000000,235.000000,235.000000,235.000000,235.000000,235.000000,235.000000,235.000000
5,236.000000,236.000000,236.000000,236.000000,236.000000,236.000000,236.000000,236.000000
5,237.000000,237.000000,237.000000,237.000000,237.000000,237.000000,237.000000,237.000000
5,238.000000,238.000000,238.000000,238.000000,238.000000,238.000000,238.000000,238.000000
5,239.000000,239.000000,239.000000,239.000000,239.000000,239.000000,239.000000,239.000000
5,240.000000,240.000000,240.000000,240.000000,240.000000,240.000000,240.000000,240.000000
5,241.000000,241.000000,241.000000,241.000000,241.000000,241.000000,241.000000,241.000000
5,242.000000,242.000000,242.000000,242.000000,242.000000,242.000000,242.000000,242.000000
5,243.000000,243.000000,243.000000,243.000000,243.000000,243.000000,243.000000,243.000000
5,244.000000,244.000000,244.000000,244.000000,244.000000,244.000000,244.000000,244.000000
5,245.000000,245.000000,245.000000,245.000000,245.000000,245.000000,245.000000,245.000000
5,246.000000,246.000000,246.000000,246.000000,246.000000,246.000000,246.000000,246.000000
5,247.000000,247.000000,247.000000,247.000000,247.000000,247.000000,247.000000,247.000000
5,248.000000,248.000000,248.000000,248.000000,248.000000,248.000000,248.000000,248.000000
5,249.000000,249.000000,249.000000,249.000000,249.000000,249.000000,249.000000,249.000000
6,250.000000,250.000000,250.000000,250.000000,250.000000,250.000000,250.000000,250.000000
6,251.000000,251.000000,251.000000,251.000000,251.000000,251.000000,251.000000,251.000000
6,252.000000,252.000000,252.000000,252.000000,252.000000,252.000000,252.000000,252.000000
6,253.000000,253.000000,253.000000,253.000000,253.000000,253.000000,253.000000,253.000000
6,254.000000,254.000000,254.000000,254.000000,254.000000,254.000000,254.000000,254.000000
6,255.000000,255.000000,255.000000,255.000000,255.000000,255.000000,255.000000,255.000000
6,256.000000,256.000000,256.000000,256.000000,256.000000,256.000000,256.000000,256.000000
6,257.000000,257.000000,257.000000,257.000000,257.000000,257.000000,257.000000,257.000000
6,258.000000,258.000000,258.000000,258.000000,258.000000,258.000000,258.000000,258.000000
6,259.000000,259.000000,259.000000,259.000000,259.000000,259.000000,259.000000,259.000000
6,260.000000,260.000000,260.000000,260.000000,260.000000,260.000000,260.000000,260.000000
6,261.000000,261.000000,261.000000,261.000000,261.000000,261.000000,261.000000,261.000000
6,262.000000,262.000000,262.000000,262.000000,262.000000,262.000000,262.000000,262.000000
6,263.000000,263.000000,263.000000,263.000000,263.000000,263.000000,263.000000,263.000000
6,264.000000,264.000000,264.000000,264.000000,264.000000,264.000000,264.000000,264.000000
6,265.000000,265.000000,265.000000,265.000000,265.000000,265.000000,265.000000,265.000000
6,266.000000,266.000000,266.000000,266.000000,266.000000,266.000000,266.000000,266.000000
6,267.000000,267.000000,267.000000,267.000000,267.000000,267.000000,267.000000,267.000000
6,268.000000,268.000000,268.000000,268.000000,268.000000,268.000000,268.000000,268.000000
6,269.000000,269.000000,269.000000,269.000000,269.000000,269.000000,269.000000,269.000000
6,270.000000,270.000000,270.000000,270.000000,270.000000,270.000000,270.000000,270.000000
6,271.000000,271.000000,271.000000,271.000000,271.000000,271.000000,271.000000,271.000000
6,272.000000,272.000000,272.000000,272.000000,272.000000,272.000000,272.000000,272.000000
6,273.000000,273.000000,273.000000,273.000000,273.000000,273.000000,273.000000,273.000000
6,274.000000,274.000000,274.000000,274.000000,274.000000,274.000000,274.000000,274.000000
6,275.000000,275.000000,275.000000,275.000000,275.000000,275.000000,275.000000,275.000000
6,276.000000,276.000000,276.000000,276.000000,276.000000,276.000000,276.000000,276.000000
6,277.000000,277.000000,277.000000,277.000000,277.000000,277.000000,277.000000,277.000000
6,278.000000,278.000000,278.000000,278.000000,278.000000,278.000000,278.000000,278.000000
6,279.000000,279.000000,279.000000,279.000000,279.000000,279.000000,279.000000,279.000000
6,280.000000,280.000000,280.000000,280.000000,280.000000,280.000000,280.000000,280.000000
6,281.000000,281.000000,281.000000,281.000000,281.000000,281.000000,281.000000,281.000000
6,282.000000,282.000000,282.000000,282.000000,282.000000,282.000000,282.000000,282.000000
6,283.000000,283.000000,283.000000,283.000000,283.000000,283.000000,283.000000,283.000000
6,284.000000,284.000000,284.000000,284.000000,284.000000,284.000000,284.000000,284.000000
6,285.000000,285.000000,285.000000,285.000000,285.000000,285.000000,285.000000,285.000000
6,286.000000,286.000000,286.000000,286.000000,286.000000,286.000000,286.000000,286.000000
6,287.000000,287.000000,287.000000,287.000000,287.000000,287.000000,287.000000,287.000000
6,288.000000,288.000000,288.000000,288.000000,288.000000,288.000000,288.000000,288.000000
6,289.000000,289.000000,289.000000,289.000000,289.000000,289.000000,289.000000,289.000000
6,290.000000,290.000000,290.000000,290.000000,290.000000,290.000000,290.000000,290.000000
6,291.000000,291.000000,291.000000,291.000000,291.000000,291.000000,291.000000,291.000000
6,292.000000,292.000000,292.000000,292.000000,292.000000,292.000000,292.000000,292.000000
6,293.000000,293.000000,293.000000,293.000000,293.000000,293.000000,293.000000,293.000000
6,294.000000,294.000000,294.000000,294.000000,294.000000,294.000000,294.000000,294.000000
6,295.000000,295.000000,295.000000,295.000000,295.000000,295.000000,295.000000,295.000000
6,296.000000,296.000000,296.000000,296.000000,296.000000,296.000000,296.000000,296.000000
6,297.000000,297.000000,297.000000,297.000000,297.000000,297.000000,297.000000,297.000000
6,298.000000,298.000000,298.000000,298.000000,298.000000,298.000000,298.000000,298.000000
6,299.000000,299.000000,299.000000,299.000000,299.000000,299.000000,299.000000,299.000000
7,300.000000,300.000000,300.000000,300.000000,300.000000,300.000000,300.000000,300.000000
7,301.000000,301.000000,301.000000,301.000000,301.000000,301.000000,301.000000,301.000000
7,302.000000,302.000000,302.000000,302.000000,302.000000,302.000000,302.000000,302.000000
7,303.000000,303.000000,303.000000,303.000000,303.000000,303.000000,303.000000,303.000000
7,304.000000,304.000000,304.000000,304.000000,304.000000,304.000000,304.000000,304.000000
7,305.000000,305.000000,305.000000,305.000000,305.000000,305.000000,305.000000,305.000000
7,306.000000,306.000000,306.000000,306.000000,306.000000,306.000000,306.000000,306.000000
7,307.000000,307.000000,307.000000,307.000000,307.000000,307.000000,307.000000,307.000000
7,308.000000,308.000000,308.000000,308.000000,308.000000,308.000000,308.000000,308.000000
7,309.000000,309.000000,309.000000,309.000000,309.000000,309.000000,309.000000,309.000000
7,310.000000,310.000000,310.000000,310.000000,310.000000,310.000000,310.000000,310.000000
7,311.000000,311.000000,311.000000,311.000000,311.000000,311.000000,311.000000,311.000000
7,312.000000,312.000000,312.000000,312.000000,312.000000,312.000000,312.000000,312.000000
7,313.000000,313.000000,313.000000,313.000000,313.000000,313.000000,313.000000,313.000000
7,314.000000,314.000000,314.000000,314.000000,314.000000,314.000000,314.000000,314.000000
7,315.000000,315.000000,315.000000,315.000000,315.000000,315.000000,315.000000,315.000000
7,316.000000,316.000000,316.000000,316.000000,316.000000,316.000000,316.000000,316.000000
7,317.000000,317.000000,317.000000,317.000000,317.000000,317.000000,317.000000,317.000000
7,318.000000,318.000000,318.000000,318.000000,318.000000,318.000000,318.000000,318.000000
7,319.000000,319.000000,319.000000,319.000000,319.000000,319.000000,319.000000,319.000000
7,320.000000,320.000000,320.000000,320.000000,320.000000,320.000000,320.000000,320.000000
7,321.000000,321.000000,321.000000,321.000000,321.000000,321.000000,321.000000,321.000000
7,322.000000,322.000000,322.000000,322.000000,322.000000,322.000000,322.000000,322.000000
7,323.000000,323.000000,323.000000,323.000000,323.000000,323.000000,323.000000,323.000000
7,324.000000,324.000000,324.000000,324.000000,324.000000,324.000000,324.000000,324.000000
7,325.000000,325.000000,325.000000,325.000000,325.000000,325.000000,325.000000,325.000000
7,326.000000,326.000000,326.000000,326.000000,326.000000,326.000000,326.000000,326.000000
7,327.000000,327.000000,327.000000,327.000000,327.000000,327.000000,327.000000,327.000000
7,328.000000,328.000000,328.000000,328.000000,328.000000,328.000000,328.000000,328.000000
7,329.000000,329.000000,329.000000,329.000000,329.000000,329.000000,329.000000,329.000000
7,330.000000,330.000000,330.000000,330.000000,330.000000,330.000000,330.000000,330.000000
7,331.000000,331.000000,331.000000,331.000000,331.000000,331.000000,331.000000,331.000000
7,332.000000,332.000000,332.000000,332.000000,332.000000,332.000000,332.000000,332.000000
7,333.000000,333.000000,333.000000,333.000000,333.000000,333.000000,333.000000,333.000000
7,334.000000,334.000000,334.000000,334.000000,334.000000,334.000000,334.000000,334.000000
7,335.000000,335.000000,335.000000,335.000000,335.000000,335.000000,335.000000,335.000000
7,336.000000,336.000000,336.000000,336.000000,336.000000,336.000000,336.000000,336.000000
7,337.000000,337.000000,337.000000,337.000000,337.000000,337.000000,337.000000,337.000000
7,338.000000,338.000000,338.000000,338.000000,338.000000,338.000000,338.000000,338.000000
7,339.000000,339.000000,339.000000,339.000000,339.000000,339.000000,339.000000,339.000000
7,340.000000,340.000000,340.000000,340.000000,340.000000,340.000000,340.000000,340.000000
7,341.000000,341.000000,341.000000,341.000000,341.000000,341.000000,341.000000,341.000000
7,342.000000,342.000000,342.000000,342.000000,342.000000,342.000000,342.000000,342.000000
7,343.000000,343.000000,343.000000,343.000000,343.000000,343.000000,343.000000,343.000000
7,344.000000,344.000000,344.000000,344.000000,344.000000,344.000000,344.000000,344.000000
7,345.000000,345.000000,345.000000,345.000000,345.000000,345.000000,345.000000,345.000000
7,346.000000,346.000000,346.000000,346.000000,346.000000,346.000000,346.000000,346.000000
7,347.000000,347.000000,347.000000,347.000000,347.000000,347.000000,347.000000,347.000000
7,348.000000,348.000000,348.000000,348.000000,348.000000,348.000000,348.000000,348.000000
7,349.000000,349.000000,349.000000,349.000000,349.000000,349.000000,349.000000,349.000000
8,350.000000,350.000000,350.000000,350.000000,350.000000,350.000000,350.000000,350.000000
8,351.000000,351.000000,351.000000,351.000000,351.000000,351.000000,351.000000,351.000000
8,352.000000,352.000000,352.000000,352.000000,352.000000,352.000000,352.000000,352.000000
8,353.000000,353.000000,353.000000,353.000000,353.000000,353.000000,353.000000,353.000000
8,354.000000,354.000000,354.000000,354.000000,354.000000,354.000000,354.000000,354.000000
8,355.000000,355.000000,355.000000,355.000000,355.000000,355.000000,355.000000,355.000000
8,356.000000,356.000000,356.000000,356.000000,356.000000,356.000000,356.000000,356.000000
8,357.000000,357.000000,357.000000,357.000000,357.000000,357.000000,357.000000,357.000000
8,358.000000,358.000000,358.000000,358.000000,358.000000,358.000000,358.000000,358.000000
8,359.000000,359.000000,359.000000,359.000000,359.000000,359.000000,359.000000,359.000000
8,360.000000,360.000000,360.000000,360.000000,360.000000,360.000000,360.000000,360.000000
8,361.000000,361.000000,361.000000,361.000000,361.000000,361.000000,361.000000,361.000000
8,362.000000,362.000000,362.000000,362.000000,362.000000,362.000000,362.000000,362.000000
8,363.000000,363.000000,363.000000,363.000000,363.000000,363.000000,363.000000,363.000000
8,364.000000,364.000000,364.000000,364.000000,364.000000,364.000000,364.000000,364.000000
8,365.000000,365.000000,365.000000,365.000000,365.000000,365.000000,365.000000,365.000000
8,366.000000,366.000000,366.000000,366.000000,366.000000,366.000000,366.000000,366.000000
8,367.000000,367.000000,367.000000,367.000000,367.000000,367.000000,367.000000,367.000000
8,368.000000,368.000000,368.000000,368.000000,368.000000,368.000000,368.000000,368.000000
8,369.000000,369.000000,369.000000,369.000000,369.000000,369.000000,369.000000,369.000000
8,370.000000,370.000000,370.000000,370.000000,370.000000,370.000000,370.000000,370.000000
8,371.000000,371.000000,371.000000,371.000000,371.000000,371.000000,371.000000,371.000000
8,372.000000,372.000000,372.000000,372.000000,372.000000,372.000000,372.000000,372.000000
8,373.000000,373.000000,373.000000,373.000000,373.000000,373.000000,373.000000,373.000000
8,374.000000,374.000000,374.000000,374.000000,374.000000,374.000000,374.000000,374.000000
8,375.000000,375.000000,375.000000,375.000000,375.000000,375.000000,375.000000,375.000000
8,376.000000,376.000000,376.000000,376.000000,376.000000,376.000000,376.000000,376.000000
8,377.000000,377.000000,377.000000,377.000000,377.000000,377.000000,377.000000,377.000000
8,378.000000,378.000000,378.000000,378.000000,378.000000,378.000000,378.000000,378.000000
8,379.000000,379.000000,379.000000,379.000000,379.000000,379.000000,379.000000,379.000000
8,380.000000,380.000000,380.000000,380.000000,380.000000,380.000000,380.000000,380.000000
8,381.000000,381.000000,381.000000,381.000000,381.000000,381.000000,381.000000,381.000000
8,382.000000,382.000000,382.000000,382.000000,382.000000,382.000000,382.000000,382.000000
8,383.000000,383.000000,383.000000,383.000000,383.000000,383.000000,383.000000,383.000000
8,384.000000,384.000000,384.000000,384.000000,384.000000,384.000000,384.000000,384.000000
8,385.000000,385.000000,385.000000,385.000000,385.000000,385.000000,385.000000,385.000000
8,386.000000,386.000000,386.000000,386.000000,386.000000,386.000000,386.000000,386.000000
8,387.000000,387.000000,387.000000,387.000000,387.000000,387.000000,387.000000,387.000000
8,388.000000,388.000000,388.000000,388.000000,388.000000,388.000000,388.000000,388.000000
8,389.000000,389.000000,389.000000,389.000000,389.000000,389.000000,389.000000,389.000000
8,390.000000,390.000000,390.000000,390.000000,390.000000,390.000000,390.000000,390.000000
8,391.000000,391.000000,391.000000,391.000000,391.000000,391.000000,391.000000,391.000000
8,392.000000,392.000000,392.000000,392.000000,392.000000,392.000000,392.000000,392.000000
8,393.000000,393.000000,393.000000,393.000000,393.000000,393.000000,393.000000,393.000000
8,394.000000,394.000000,394.000000,394.000000,394.000000,394.000000,394.000000,394.000000
8,395.000000,395.000000,395.000000,395.000000,395.000000,395.000000,395.000000,395.000000
8,396.000000,396.000000,396.000000,396.000000,396.000000,396.000000,396.000000,396.000000
8,397.000000,397.000000,397.000000,397.000000,397.000000,397.000000,397.000000,397.000000
8,398.000000,398.000000,398.000000,398.000000,398.000000,398.000000,398.000000,398.000000
8,399.000000,399.000000,399.000000,399.000000,399.000000,399.000000,399.000000,399.000000
9,400.000000,400.000000,400.000000,400.000000,400.000000,400.000000,400.000000,400.000000
9,401.000000,401.000000,401.000000,401.000000,401.000000,401.000000,401.000000,401.000000
9,402.000000,402.000000,402.000000,402.000000,402.000000,402.000000,402.000000,402.000000
9,403.000000,403.000000,403.000000,403.000000,403.000000,403.000000,403.000000,403.000000
9,404.000000,404.000000,404.000000,404.000000,404.000000,404.000000,404.000000,404.000000
9,405.000000,405.000000,405.000000,405.000000,405.000000,405.000000,405.000000,405.000000
9,406.000000,406.000000,406.000000,406.000000,406.000000,406.000000,406.000000,406.000000
9,407.000000,407.000000,407.000000,407.000000,407.000000,407.000000,407.000000,407.000000
9,408.000000,408.000000,408.000000,408.000000,408.000000,408.000000,408.000000,408.000000
9,409.000000,409.000000,409.000000,409.000000,409.000000,409.000000,409.000000,409.000000
9,410.000000,410.000000,410.000000,410.000000,410.000000,410.000000,410.000000,410.000000
9,411.000000,411.000000,411.000000,411.000000,411.000000,411.000000,411.000000,411.000000
9,412.000000,412.000000,412.000000,412.000000,412.000000,412.000000,412.000000,412.000000
9,413.000000,413.000000,413.000000,413.000000,413.000000,413.000000,413.000000,413.000000
9,414.000000,414.000000,414.000000,414.000000,414.000000,414.000000,414.000000,414.000000
9,415.000000,415.000000,415.000000,415.000000,415.000000,415.000000,415.000000,415.000000
9,416.000000,416.000000,416.000000,416.000000,416.000000,416.000000,416.000000,416.000000
9,417.000000,417.000000,417.000000,417.000000,417.000000,417.000000,417.000000,417.000000
9,418.000000,418.000000,418.000000,418.000000,418.000000,418.000000,418.000000,418.000000
9,419.000000,419.000000,419.000000,419.000000,419.000000,419.000000,419.000000,419.000000
9,420.000000,420.000000,420.000000,420.000000,420.000000,420.000000,420.000000,420.000000
9,421.000000,421.000000,421.000000,421.000000,421.000000,421.000000,421.000000,421.000000
9,422.000000,422.000000,422.000000,422.000000,422.000000,422.000000,422.000000,422.000000
9,423.000000,423.000000,423.000000,423.000000,423.000000,423.000000,423.000000,423.000000
9,424.000000,424.000000,424.000000,424.000000,424.000000,424.000000,424.000000,424.000000
9,425.000000,425.000000,425.000000,425.000000,425.000000,425.000000,425.000000,425.000000
9,426.000000,426.000000,426.000000,426.000000,426.000000,426.000000,426.000000,426.000000
9,427.000000,427.000000,427.000000,427.000000,427.000000,427.000000,427.000000,427.000000
9,428.000000,428.000000,428.000000,428.000000,428.000000,428.000000,428.000000,428.000000
9,429.000000,429.000000,429.000000,429.000000,429.000000,429.000000,429.000000,429.000000
9,430.000000,430.000000,430.000000,430.000000,430.000000,430.000000,430.000000,430.000000
9,431.000000,431.000000,431.000000,431.000000,431.000000,431.000000,431.000000,431.000000
9,432.000000,432.000000,432.000000,432.000000,432.000000,432.000000,432.000000,432.000000
9,433.000000,433.000000,433.000000,433.000000,433.000000,433.000000,433.000000,433.000000
9,434.000000,434.000000,434.000000,434.000000,434.000000,434.000000,434.000000,434.000000
9,435.000000,435.000000,435.000000,435.000000,435.000000,435.000000,435.000000,435.000000
9,436.000000,436.000000,436.000000,436.000000,436.000000,436.000000,436.000000,436.000000
9,437.000000,437.000000,437.000000,437.000000,437.000000,437.000000,437.000000,437.000000
9,438.000000,438.000000,438.000000,438.000000,438.000000,438.000000,438.000000,438.000000
9,439.000000,439.000000,439.000000,439.000000,439.000000,439.000000,439.000000,439.000000
9,440.000000,440.000000,440.000000,440.000000,440.000000,440.000000,440.000000,440.000000
9,441.000000,441.000000,441.000000,441.000000,441.000000,441.000000,441.000000,441.000000
9,442.000000,442.000000,442.000000,442.000000,442.000000,442.000000,442.000000,442.000000
9,443.000000,443.000000,443.000000,443.000000,443.000000,443.000000,443.000000,443.000000
9,444.000000,444.000000,444.000000,444.000000,444.000000,444.000000,444.000000,444.000000
9,445.000000,445.000000,445.000000,445.000000,445.000000,445.000000,445.000000,445.000000
9,446.000000,446.000000,446.000000,446.000000,446.000000,446.000000,446.000000,446.000000
9,447.000000,447.000000,447.000000,447.000000,447.000000,447.000000,447.000000,447.000000
9,448.000000,448.000000,448.000000,448.000000,448.000000,448.000000,448.000000,448.000000
9,449.000000,449.000000,449.000000,449.000000,449.000000,449.000000,449.000000,449.000000
10,450.000000,450.000000,450.000000,450.000000,450.000000,450.000000,450.000000,450.000000
10,451.000000,451.000000,451.000000,451.000000,451.000000,451.000000,451.000000,451.000000
10,452.000000,452.000000,452.000000,452.000000,452.000000,452.000000,452.000000,452.000000
10,453.000000,453.000000,453.000000,453.000000,453.000000,453.000000,453.000000,453.000000
10,454.000000,454.000000,454.000000,454.000000,454.000000,454.000000,454.000000,454.000000
10,455.000000,455.000000,455.000000,455.000000,455.000000,455.000000,455.000000,455.000000
10,456.000000,456.000000,456.000000,456.000000,456.000000,456.000000,456.000000,456.000000
10,457.000000,457.000000,457.000000,457.000000,457.000000,457.000000,457.000000,457.000000
10,458.000000,458.000000,458.000000,458.000000,458.000000,458.000000,458.000000,458.000000
10,459.000000,459.000000,459.000000,459.000000,459.000000,459.000000,459.000000,459.000000
10,460.000000,460.000000,460.000000,460.000000,460.000000,460.000000,460.000000,460.000000
10,461.000000,461.000000,461.000000,461.000000,461.000000,461.000000,461.000000,461.000000
10,462.000000,462.000000,462.000000,462.000000,462.000000,462.000000,462.000000,462.000000
10,463.000000,463.000000,463.000000,463.000000,463.000000,463.000000,463.000000,463.000000
10,464.000000,464.000000,464.000000,464.000000,464.000000,464.000000,464.000000,464.000000
10,465.000000,465.000000,465.000000,465.000000,465.000000,465.000000,465.000000,465.000000
10,466.000000,466.000000,466.000000,466.000000,466.000000,466.000000,466.000000,466.000000
10,467.000000,467.000000,467.000000,467.000000,467.000000,467.000000,467.000000,467.000000
10,468.000000,468.000000,468.000000,468.000000,468.000000,468.000000,468.000000,468.000000
10,469.000000,469.000000,469.000000,469.000000,469.000000,469.000000,469.000000,469.000000
10,470.000000,470.000000,470.000000,470.000000,470.000000,470.000000,470.000000,470.000000
10,471.000000,471.000000,471.000000,471.000000,471.000000,471.000000,471.000000,471.000000
10,472.000000,472.000000,472.000000,472.000000,472.000000,472.000000,472.000000,472.000000
10,473.000000,473.000000,473.000000,473.000000,473.000000,473.000000,473.000000,473.000000
10,474.000000,474.000000,474.000000,474.000000,474.000000,474.000000,474.000000,474.000000
10,475.000000,475.000000,475.000000,475.000000,475.000000,475.000000,475.000000,475.000000
10,476.000000,476.000000,476.000000,476.000000,476.000000,476.000000,476.000000,476.000000
10,477.000000,477.000000,477.000000,477.000000,477.000000,477.000000,477.000000,477.000000
10,478.000000,478.000000,478.000000,478.000000,478.000000,478.000000,478.000000,478.000000
10,479.000000,479.000000,479.000000,479.000000,479.000000,479.000000,479.000000,479.000000
10,480.000000,480.000000,480.000000,480.000000,480.000000,480.000000,480.000000,480.000000
10,481.000000,481.000000,481.000000,481.000000,481.000000,481.000000,481.000000,481.000000
10,482.000000,482.000000,482.000000,482.000000,482.000000,482.000000,482.000000,482.000000
10,483.000000,483.000000,483.000000,483.000000,483.000000,483.000000,483.000000,483.000000
10,484.000000,484.000000,484.000000,484.000000,484.000000,484.000000,484.000000,484.000000
10,485.000000,485.000000,485.000000,485.000000,485.000000,485.000000,485.000000,485.000000
10,486.000000,486.000000,486.000000,486.000000,486.000000,486.000000,486.000000,486.000000
10,487.000000,487.000000,487.000000,487.000000,487.000000,487.000000,487.000000,487.000000
10,488.000000,488.000000,488.000000,488.000000,488.000000,488.000000,488.000000,488.000000
10,489.000000,489.000000,489.000000,489.000000,489.000000,489.000000,489.000000,489.000000
10,490.000000,490.000000,490.000000,490.000000,490.000000,490.000000,490.000000,490.000000
10,491.000000,491.000000,491.000000,491.000000,491.000000,491.000000,491.000000,491.000000
10,492.000000,492.000000,492.000000,492.000000,492.000000,492.000000,492.000000,492.000000
10,493.000000,493.000000,493.000000,493.000000,493.000000,493.000000,493.000000,493.000000
10,494.000000,494.000000,494.000000,494.000000,494.000000,494.000000,494.000000,494.000000
10,495.000000,495.000000,495.000000,495.000000,495.000000,495.000000,495.000000,495.000000
10,496.000000,496.000000,496.000000,496.000000,496.000000,496.000000,496.000000,496.000000
10,497.000000,497.000000,497.000000,497.000000,497.000000,497.000000,497.000000,497.000000
10,498.000000,498.000000,498.000000,498.000000,498.000000,498.000000,498.000000,498.000000
10,499.000000,499.000000,499.000000,499.000000,499.000000,499.000000,499.000000,499.000000
11,500.000000,500.000000,500.000000,500.000000,500.000000,500.000000,500.000000,500.000000
11,501.000000,501.000000,501.000000,501.000000,501.000000,501.000000,501.000000,501.000000
11,502.000000,502.000000,502.000000,502.000000,502.000000,502.000000,502.000000,502.000000
11,503.000000,503.000000,503.000000,503.000000,503.000000,503.000000,503.000000,503.000000
11,504.000000,504.000000,504.000000,504.000000,504.000000,504.000000,504.000000,504.000000
11,505.000000,505.000000,505.000000,505.000000,505.000000,505.000000,505.000000,505.000000
11,506.000000,506.000000,506.000000,506.000000,506.000000,506.000000,506.000000,506.000000
11,507.000000,507.000000,507.000000,507.000000,507.000000,507.000000,507.000000,507.000000
11,508.000000,508.000000,508.000000,508.000000,508.000000,508.000000,508.000000,508.000000
11,509.000000,509.000000,509.000000,509.000000,509.000000,509.000000,509.000000,509.000000
11,510.000000,510.000000,510.000000,510.000000,510.000000,510.000000,510.000000,510.000000
11,511.000000,511.000000,511.000000,511.000000,511.000000,511.000000,511.000000,511.000000
11,512.000000,512.000000,512.000000,512.000000,512.000000,512.000000,512.000000,512.000000
11,513.000000,513.000000,513.000000,513.000000,513.000000,513.000000,513.000000,513.000000
11,514.000000,514.000000,514.000000,514.000000,514.000000,514.000000,514.000000,514.000000
11,515.000000,515.000000,515.000000,515.000000,515.000000,515.000000,515.000000,515.000000
11,516.000000,516.000000,516.000000,516.000000,516.000000,516.000000,516.000000,516.000000
11,517.000000,517.000000,517.000000,517.000000,517.000000,517.000000,517.000000,517.000000
11,518.000000,518.000000,518.000000,518.000000,518.000000,518.000000,518.000000,518.000000
11,519.000000,519.000000,519.000000,519.000000,519.000000,519.000000,519.000000,519.000000
11,520.000000,520.000000,520.000000,520.000000,520.000000,520.000000,520.000000,520.000000
11,521.000000,521.000000,521.000000,521.000000,521.000000,521.000000,521.000000,521.000000
11,522.000000,522.000000,522.000000,522.000000,522.000000,522.000000,522.000000,522.000000
11,523.000000,523.000000,523.000000,523.000000,523.000000,523.000000,523.000000,523.000000
11,524.000000,524.000000,524.000000,524.000000,524.000000,524.000000,524.000000,524.000000
11,525.000000,525.000000,525.000000,525.000000,525.000000,525.000000,525.000000,525.000000
11,526.000000,526.000000,526.000000,526.000000,526.000000,526.000000,526.000000,526.000000
11,527.000000,527.000000,527.000000,527.000000,527.000000,527.000000,527.000000,527.000000
11,528.000000,528.000000,528.000000,528.000000,528.000000,528.000000,528.000000,528.000000
11,529.000000,529.000000,529.000000,529.000000,529.000000,529.000000,529.000000,529.000000
11,530.000000,530.000000,530.000000,530.000000,530.000000,530.000000,530.000000,530.000000
11,531.000000,531.000000,531.000000,531.000000,531.000000,531.000000,531.000000,531.000000
11,532.000000,532.000000,532.000000,532.000000,532.000000,532.000000,532.000000,532.000000
11,533.000000,533.000000,533.000000,533.000000,533.000000,533.000000,533.000000,533.000000
11,534.000000,534.000000,534.000000,534.000000,534.000000,534.000000,534.000000,534.000000
11,535.000000,535.000000,535.000000,535.000000,535.000000,535.000000,535.000000,535.000000
11,536.000000,536.000000,536.000000,536.000000,536.000000,536.000000,536.000000,536.000000
11,537.000000,537.000000,537.000000,537.000000,537.000000,537.000000,537.000000,537.000000
11,538.000000,538.000000,538.000000,538.000000,538.000000,538.000000,538.000000,538.000000
11,539.000000,539.000000,539.000000,539.000000,539.000000,539.000000,539.000000,539.000000
11,540.000000,540.000000,540.000000,540.000000,540.000000,540.000000,540.000000,540.000000
11,541.000000,541.000000,541.000000,541.000000,541.000000,541.000000,541.000000,541.000000
11,542.000000,542.000000,542.000000,542.000000,542.000000,542.000000,542.000000,542.000000
11,543.000000,543.000000,543.000000,543.000000,543.000000,543.000000,543.000000,543.000000
11,544.000000,544.000000,544.000000,544.000000,544.000000,544.000000,544.000000,544.000000
11,545.000000,545.000000,545.000000,545.000000,545.000000,545.000000,545.000000,545.000000
11,546.000000,546.000000,546.000000,546.000000,546.000000,546.000000,546.000000,546.000000
11,547.000000,547.000000,547.000000,547.000000,547.000000,547.000000,547.000000,547.000000
11,548.000000,548.000000,548.000000,548.000000,548.000000,548.000000,548.000000,548.000000
11,549.000000,549.000000,549.000000,549.000000,549.000000,549.000000,549.000000,549.000000
12,550.000000,550.000000,550.000000,550.000000,550.000000,550.000000,550.000000,550.000000
12,551.000000,551.000000,551.000000,551.000000,551.000000,551.000000,551.000000,551.000000
12,552.000000,552.000000,552.000000,552.000000,552.000000,552.000000,552.000000,552.000000
12,553.000000,553.000000,553.000000,553.000000,553.000000,553.000000,553.000000,553.000000
12,554.000000,554.000000,554.000000,554.000000,554.000000,554.000000,554.000000,554.000000
12,555.000000,555.000000,555.000000,555.000000,555.000000,555.000000,555.000000,555.000000
12,556.000000,556.000000,556.000000,556.000000,556.000000,556.000000,556.000000,556.000000
12,557.000000,557.000000,557.000000,557.000000,557.000000,557.000000,557.000000,557.000000
12,558.000000,558.000000,558.000000,558.000000,558.000000,558.000000,558.000000,558.000000
12,559.000000,559.000000,559.000000,559.000000,559.000000,559.000000,559.000000,559.000000
12,560.000000,560.000000,560.000000,560.000000,560.000000,560.000000,560.000000,560.000000
12,561.000000,561.000000,561.000000,561.000000,561.000000,561.000000,561.000000,561.000000
12,562.000000,562.000000,562.000000,562.000000,562.000000,562.000000,562.000000,562.000000
12,563.000000,563.000000,563.000000,563.000000,563.000000,563.000000,563.000000,563.000000
12,564.000000,564.000000,564.000000,564.000000,564.000000,564.000000,564.000000,564.000000
12,565.000000,565.000000,565.000000,565.000000,565.000000,565.000000,565.000000,565.000000
12,566.000000,566.000000,566.000000,566.000000,566.000000,566.000000,566.000000,566.000000
12,567.000000,567.000000,567.000000,567.000000,567.000000,567.000000,567.000000,567.000000
12,568.000000,568.000000,568.000000,568.000000,568.000000,568.000000,568.000000,568.000000
12,569.000000,569.000000,569.000000,569.000000,569.000000,569.000000,569.000000,569.000000
12,570.000000,570.000000,570.000000,570.000000,570.000000,570.000000,570.000000,570.000000
12,571.000000,571.000000,571.000000,571.000000,571.000000,571.000000,571.000000,571.000000
12,572.000000,572.000000,572.000000,572.000000,572.000000,572.000000,572.000000,572.000000
12,573.000000,573.000000,573.000000,573.000000,573.000000,573.000000,573.000000,573.000000
12,574.000000,574.000000,574.000000,574.000000,574.000000,574.000000,574.000000,574.000000
12,575.000000,575.000000,575.000000,575.000000,575.000000,575.000000,575.000000,575.000000
12,576.000000,576.000000,576.000000,576.000000,576.000000,576.000000,576.000000,576.000000
12,577.000000,577.000000,577.000000,577.000000,577.000000,577.000000,577.000000,577.000000
12,578.000000,578.000000,578.000000,578.000000,578.000000,578.000000,578.000000,578.000000
12,579.000000,579.000000,579.000000,579.000000,579.000000,579.000000,579.000000,579.000000
12,580.000000,580.000000,580.000000,580.000000,580.000000,580.000000,580.000000,580.000000
12,581.000000,581.000000,581.000000,581.000000,581.000000,581.000000,581.000000,581.000000
12,582.000000,582.000000,582.000000,582.000000,582.000000,582.000000,582.000000,582.000000
12,583.000000,583.000000,583.000000,583.000000,583.000000,583.000000,583.000000,583.000000
12,584.000000,584.000000,584.000000,584.000000,584.000000,584.000000,584.000000,584.000000
12,585.000000,585.000000,585.000000,585.000000,585.000000,585.000000,585.000000,585.000000
12,586.000000,586.000000,586.000000,586.000000,586.000000,586.000000,586.000000,586.000000
12,587.000000,587.000000,587.000000,587.000000,587.000000,587.000000,587.000000,587.000000
12,588.000000,588.000000,588.000000,588.000000,588.000000,588.000000,588.000000,588.000000
12,589.000000,589.000000,589.000000,589.000000,589.000000,589.000000,589.000000,589.000000
12,590.000000,590.000000,590.000000,590.000000,590.000000,590.000000,590.000000,590.000000
12,591.000000,591.000000,591.000000,591.000000,591.000000,591.000000,591.000000,591.000000
12,592.000000,592.000000,592.000000,592.000000,592.000000,592.000000,592.000000,592.000000
12,593.000000,593.000000,593.000000,593.000000,593.000000,593.000000,593.000000,593.000000
12,594.000000,594.000000,594.000000,594.000000,594.000000,594.000000,594.000000,594.000000
12,595.000000,595.000000,595.000000,595.000000,595.000000,595.000000,595.000000,595.000000
12,596.000000,596.000000,596.000000,596.000000,596.000000,596.000000,596.000000,596.000000
12,597.000000,597.000000,597.000000,597.000000,597.000000,597.000000,597.000000,597.000000
12,598.000000,598.000000,598.000000,598.000000,598.000000,598.000000,598.000000,598.000000
12,599.000000,599.000000,599.000000,599.000000,599.000000,599.000000,599.000000,599.000000
13,600.000000,600.000000,600.000000,600.000000,600.000000,600.000000,600.000000,600.000000
13,601.000000,601.000000,601.000000,601.000000,601.000000,601.000000,601.000000,601.000000
13,602.000000,602.000000,602.000000,602.000000,602.000000,602.000000,602.000000,602.000000
13,603.000000,603.000000,603.000000,603.000000,603.000000,603.000000,603.000000,603.000000
13,604.000000,604.000000,604.000000,604.000000,604.000000,604.000000,604.000000,604.000000
13,605.000000,605.000000,605.000000,605.000000,605.000000,605.000000,605.000000,605.000000
13,606.000000,606.000000,606.000000,606.000000,606.000000,606.000000,606.000000,606.000000
13,607.000000,607.000000,607.000000,607.000000,607.000000,607.000000,607.000000,607.000000
13,608.000000,608.000000,608.000000,608.000000,608.000000,608.000000,608.000000,608.000000
13,609.000000,609.000000,609.000000,609.000000,609.000000,609.000000,609.000000,609.000000
13,610.000000,610.000000,610.000000,610.000000,610.000000,610.000000,610.000000,610.000000
13,611.000000,611.000000,611.000000,611.000000,611.000000,611.000000,611.000000,611.000000
13,612.000000,612.000000,612.000000,612.000000,612.000000,612.000000,612.000000,612.000000
13,613.000000,613.000000,613.000000,613.000000,613.000000,613.000000,613.000000,613.000000
13,614.000000,614.000000,614.000000,614.000000,614.000000,614.000000,614.000000,614.000000
13,615.000000,615.000000,615.000000,615.000000,615.000000,615.000000,615.000000,615.000000
13,616.000000,616.000000,616.000000,616.000000,616.000000,616.000000,616.000000,616.000000
13,617.000000,617.000000,617.000000,617.000000,617.000000,617.000000,617.000000,617.000000
13,618.000000,618.000000,618.000000,618.000000,618.000000,618.000000,618.000000,618.000000
13,619.000000,619.000000,619.000000,619.000000,619.000000,619.000000,619.000000,619.000000
13,620.000000,620.000000,620.000000,620.000000,620.000000,620.000000,620.000000,620.000000
13,621.000000,621.000000,621.000000,621.000000,621.000000,621.000000,621.000000,621.000000
13,622.000000,622.000000,622.000000,622.000000,622.000000,622.000000,622.000000,622.000000
13,623.000000,623.000000,623.000000,623.000000,623.000000,623.000000,623.000000,623.000000
13,624.000000,624.000000,624.000000,624.000000,624.000000,624.000000,624.000000,624.000000
13,625.000000,625.000000,625.000000,625.000000,625.000000,625.000000,625.000000,625.000000
13,626.000000,626.000000,626.000000,626.000000,626.000000,626.000000,626.000000,626.000000
13,627.000000,627.000000,627.000000,627.000000,627.000000,627.000000,627.000000,627.000000
13,628.000000,628.000000,628.000000,628.000000,628.000000,628.000000,628.000000,628.000000
13,629.000000,629.000000,629.000000,629.000000,629.000000,629.000000,629.000000,629.000000
13,630.000000,630.000000,630.000000,630.000000,630.000000,630.000000,630.000000,630.000000
13,631.000000,631.000000,631.000000,631.000000,631.000000,631.000000,631.000000,631.000000
13,632.000000,632.000000,632.000000,632.000000,632.000000,632.000000,632.000000,632.000000
13,633.000000,633.000000,633.000000,633.000000,633.000000,633.000000,633.000000,633.000000
13,634.000000,634.000000,634.000000,634.000000,634.000000,634.000000,634.000000,634.000000
13,635.000000,635.000000,635.000000,635.000000,635.000000,635.000000,635.000000,635.000000
13,636.000000,636.000000,636.000000,636.000000,636.000000,636.000000,636.000000,636.000000
13,637.000000,637.000000,637.000000,637.000000,637.000000,637.000000,637.000000,637.000000
13,638.000000,638.000000,638.000000,638.000000,638.000000,638.000000,638.000000,638.000000
13,639.000000,639.000000,639.000000,639.000000,639.000000,639.000000,639.000000,639.000000
13,640.000000,640.000000,640.000000,640.000000,640.000000,640.000000,640.000000,640.000000
13,641.000000,641.000000,641.000000,641.000000,641.000000,641.000000,641.000000,641.000000
13,642.000000,642.000000,642.000000,642.000000,642.000000,642.000000,642.000000,642.000000
13,643.000000,643.000000,643.000000,643.000000,643.000000,643.000000,643.000000,643.000000
13,644.000000,644.000000,644.000000,644.000000,644.000000,644.000000,644.000000,644.000000
13,645.000000,645.000000,645.000000,645.000000,645.000000,645.000000,645.000000,645.000000
13,646.000000,646.000000,646.000000,646.000000,646.000000,646.000000,646.000000,646.000000
13,647.000000,647.000000,647.000000,647.000000,647.000000,647.000000,647.000000,647.000000
13,648.000000,648.000000,648.000000,648.000000,648.000000,648.000000,648.000000,648.000000
13,649.000000,649.000000,649.000000,649.000000,649.000000,649.000000,649.000000,649.000000
14,650.000000,650.000000,650.000000,650.000000,650.000000,650.000000,650.000000,650.000000
14,651.000000,651.000000,651.000000,651.000000,651.000000,651.000000,651.000000,651.000000
14,652.000000,652.000000,652.000000,652.000000,652.000000,652.000000,652.000000,652.000000
14,653.000000,653.000000,653.000000,653.000000,653.000000,653.000000,653.000000,653.000000
14,654.000000,654.000000,654.000000,654.000000,654.000000,654.000000,654.000000,654.000000
14,655.000000,655.000000,655.000000,655.000000,655.000000,655.000000,655.000000,655.000000
14,656.000000,656.000000,656.000000,656.000000,656.000000,656.000000,656.000000,656.000000
14,657.000000,657.000000,657.000000,657.000000,657.000000,657.000000,657.000000,657.000000
14,658.000000,658.000000,658.000000,658.000000,658.000000,658.000000,658.000000,658.000000
14,659.000000,659.000000,659.000000,659.000000,659.000000,659.000000,659.000000,659.000000
14,660.000000,660.000000,660.000000,660.000000,660.000000,660.000000,660.000000,660.000000
14,661.000000,661.000000,661.000000,661.000000,661.000000,661.000000,661.000000,661.000000
14,662.000000,662.000000,662.000000,662.000000,662.000000,662.000000,662.000000,662.000000
14,663.000000,663.000000,663.000000,663.000000,663.000000,663.000000,663.000000,663.000000
14,664.000000,664.000000,664.000000,664.000000,664.000000,664.000000,664.000000,664.000000
14,665.000000,665.000000,665.000000,665.000000,665.000000,665.000000,665.000000,665.000000
14,666.000000,666.000000,666.000000,666.000000,666.000000,666.000000,666.000000,666.000000
14,667.000000,667.000000,667.000000,667.000000,667.000000,667.000000,667.000000,667.000000
14,668.000000,668.000000,668.000000,668.000000,668.000000,668.000000,668.000000,668.000000
14,669.000000,669.000000,669.000000,669.000000,669.000000,669.000000,669.000000,669.000000
14,670.000000,670.000000,670.000000,670.000000,670.000000,670.000000,670.000000,670.000000
14,671.000000,671.000000,671.000000,671.000000,671.000000,671.000000,671.000000,671.000000
14,672.000000,672.000000,672.000000,672.000000,672.000000,672.000000,672.000000,672.000000
14,673.000000,673.000000,673.000000,673.000000,673.000000,673.000000,673.000000,673.000000
14,674.000000,674.000000,674.000000,674.000000,674.000000,674.000000,674.000000,674.000000
14,675.000000,675.000000,675.000000,675.000000,675.000000,675.000000,675.000000,675.000000
14,676.000000,676.000000,676.000000,676.000000,676.000000,676.000000,676.000000,676.000000
14,677.000000,677.000000,677.000000,677.000000,677.000000,677.000000,677.000000,677.000000
14,678.000000,678.000000,678.000000,678.000000,678.000000,678.000000,678.000000,678.000000
14,679.000000,679.000000,679.000000,679.000000,679.000000,679.000000,679.000000,679.000000
14,680.000000,680.000000,680.000000,680.000000,680.000000,680.000000,680.000000,680.000000
14,681.000000,681.000000,681.000000,681.000000,681.000000,681.000000,681.000000,681.000000
14,682.000000,682.000000,682.000000,682.000000,682.000000,682.000000,682.000000,682.000000
14,683.000000,683.000000,683.000000,683.000000,683.000000,683.000000,683.000000,683.000000
14,684.000000,684.000000,684.000000,684.000000,684.000000,684.000000,684.000000,684.000000
14,685.000000,685.000000,685.000000,685.000000,685.000000,685.000000,685.000000,685.000000
14,686.000000,686.000000,686.000000,686.000000,686.000000,686.000000,686.000000,686.000000
14,687.000000,687.000000,687.000000,687.000000,687.000000,687.000000,687.000000,687.000000
14,688.000000,688.000000,688.000000,688.000000,688.000000,688.000000,688.000000,688.000000
14,689.000000,689.000000,689.000000,689.000000,689.000000,689.000000,689.000000,689.000000
14,690.000000,690.000000,690.000000,690.000000,690.000000,690.000000,690.000000,690.000000
14,691.000000,691.000000,691.000000,691.000000,691.000000,691.000000,691.000000,691.000000
14,692.000000,692.000000,692.000000,692.000000,692.000000,692.000000,692.000000,692.000000
14,693.000000,693.000000,693.000000,693.000000,693.000000,693.000000,693.000000,693.000000
14,694.000000,694.000000,694.000000,694.000000,694.000000,694.000000,694.000000,694.000000
14,695.000000,695.000000,695.000000,695.000000,695.000000,695.000000,695.000000,695.000000
14,696.000000,696.000000,696.000000,696.000000,696.000000,696.000000,696.000000,696.000000
14,697.000000,697.000000,697.000000,697.000000,697.000000,697.000000,697.000000,697.000000
14,698.000000,698.000000,698.000000,698.000000,698.000000,698.000000,698.000000,698.000000
14,699.000000,699.000000,699.000000,699.000000,699.000000,699.000000,699.000000,699.000000
15,700.000000,700.000000,700.000000,700.000000,700.000000,700.000000,700.000000,700.000000
15,701.000000,701.000000,701.000000,701.000000,701.000000,701.000000,701.000000,701.000000
15,702.000000,702.000000,702.000000,702.000000,702.000000,702.000000,702.000000,702.000000
15,703.000000,703.000000,703.000000,703.000000,703.000000,703.000000,703.000000,703.000000
15,704.000000,704.000000,704.000000,704.000000,704.000000,704.000000,704.000000,704.000000
15,705.000000,705.000000,705.000000,705.000000,705.000000,705.000000,705.000000,705.000000
15,706.000000,706.000000,706.000000,706.000000,706.000000,706.000000,706.000000,706.000000
15,707.000000,707.000000,707.000000,707.000000,707.000000,707.000000,707.000000,707.000000
15,708.000000,708.000000,708.000000,708.000000,708.000000,708.000000,708.000000,708.000000
15,709.000000,709.000000,709.000000,709.000000,709.000000,709.000000,709.000000,709.000000
15,710.000000,710.000000,710.000000,710.000000,710.000000,710.000000,710.000000,710.000000
15,711.000000,711.000000,711.000000,711.000000,711.000000,711.000000,711.000000,711.000000
15,712.000000,712.000000,712.000000,712.000000,712.000000,712.000000,712.000000,712.000000
15,713.000000,713.000000,713.000000,713.000000,713.000000,713.000000,713.000000,713.000000
15,714.000000,714.000000,714.000000,714.000000,714.000000,714.000000,714.000000,714.000000
15,715.000000,715.000000,715.000000,715.000000,715.000000,715.000000,715.000000,715.000000
15,716.000000,716.000000,716.000000,716.000000,716.000000,716.000000,716.000000,716.000000
15,717.000000,717.000000,717.000000,717.000000,717.000000,717.000000,717.000000,717.000000
15,718.000000,718.000000,718.000000,718.000000,718.000000,718.000000,718.000000,718.000000
15,719.000000,719.000000,719.000000,719.000000,719.000000,719.000000,719.000000,719.000000
15,720.000000,720.000000,720.000000,720.000000,720.000000,720.000000,720.000000,720.000000
15,721.000000,721.000000,721.000000,721.000000,721.000000,721.000000,721.000000,721.000000
15,722.000000,722.000000,722.000000,722.000000,722.000000,722.000000,722.000000,722.000000
15,723.000000,723.000000,723.000000,723.000000,723.000000,723.000000,723.000000,723.000000
15,724.000000,724.000000,724.000000,724.000000,724.000000,724.000000,724.000000,724.000000
15,725.000000,725.000000,725.000000,725.000000,725.000000,725.000000,725.000000,725.000000
15,726.000000,726.000000,726.000000,726.000000,726.000000,726.000000,726.000000,726.000000
15,727.000000,727.000000,727.000000,727.000000,727.000000,727.000000,727.000000,727.000000
15,728.000000,728.000000,728.000000,728.000000,728.000000,728.000000,728.000000,728.000000
15,729.000000,729.000000,729.000000,729.000000,729.000000,729.000000,729.000000,729.000000
15,730.000000,730.000000,730.000000,730.000000,730.000000,730.000000,730.000000,730.000000
15,731.000000,731.000000,731.000000,731.000000,731.000000,731.000000,731.000000,731.000000
15,732.000000,732.000000,732.000000,732.000000,732.000000,732.000000,732.000000,732.000000
15,733.000000,733.000000,733.000000,733.000000,733.000000,733.000000,733.000000,733.000000
15,734.000000,734.000000,734.000000,734.000000,734.000000,734.000000,734.000000,734.000000
15,735.000000,735.000000,735.000000,735.000000,735.000000,735.000000,735.000000,735.000000
15,736.000000,736.000000,736.000000,736.000000,736.000000,736.000000,736.000000,736.000000
15,737.000000,737.000000,737.000000,737.000000,737.000000,737.000000,737.000000,737.000000
15,738.000000,738.000000,738.000000,738.000000,738.000000,738.000000,738.000000,738.000000
15,739.000000,739.000000,739.000000,739.000000,739.000000,739.000000,739.000000,739.000000
15,740.000000,740.000000,740.000000,740.000000,740.000000,740.000000,740.000000,740.000000
15,741.000000,741.000000,741.000000,741.000000,741.000000,741.000000,741.000000,741.000000
15,742.000000,742.000000,742.000000,742.000000,742.000000,742.000000,742.000000,742.000000
15,743.000000,743.000000,743.000000,743.000000,743.000000,743.000000,743.000000,743.000000
15,744.000000,744.000000,744.000000,744.000000,744.000000,744.000000,744.000000,744.000000
15,745.000000,745.000000,745.000000,745.000000,745.000000,745.000000,745.000000,745.000000
15,746.000000,746.000000,746.000000,746.000000,746.000000,746.000000,746.000000,746.000000
15,747.000000,747.000000,747.000000,747.000000,747.000000,747.000000,747.000000,747.000000
15,748.000000,748.000000,748.000000,748.000000,748.000000,748.000000,748.000000,748.000000
15,749.000000,749.000000,749.000000,749.000000,749.000000,749.000000,749.000000,749.000000
16,750.000000,750.000000,750.000000,750.000000,750.000000,750.000000,750.000000,750.000000
16,751.000000,751.000000,751.000000,751.000000,751.000000,751.000000,751.000000,751.000000
16,752.000000,752.000000,752.000000,752.000000,752.000000,752.000000,752.000000,752.000000
16,753.000000,753.000000,753.000000,753.000000,753.000000,753.000000,753.000000,753.000000
16,754.000000,754.000000,754.000000,754.000000,754.000000,754.000000,754.000000,754.000000
16,755.000000,755.000000,755.000000,755.000000,755.000000,755.000000,755.000000,755.000000
16,756.000000,756.000000,756.000000,756.000000,756.000000,756.000000,756.000000,756.000000
16,757.000000,757.000000,757.000000,757.000000,757.000000,757.000000,757.000000,757.000000
16,758.000000,758.000000,758.000000,758.000000,758.000000,758.000000,758.000000,758.000000
16,759.000000,759.000000,759.000000,759.000000,759.000000,759.000000,759.000000,759.000000
16,760.000000,760.000000,760.000000,760.000000,760.000000,760.000000,760.000000,760.000000
16,761.000000,761.000000,761.000000,761.000000,761.000000,761.000000,761.000000,761.000000
16,762.000000,762.000000,762.000000,762.000000,762.000000,762.000000,762.000000,762.000000
16,763.000000,763.000000,763.000000,763.000000,763.000000,763.000000,763.000000,763.000000
16,764.000000,764.000000,764.000000,764.000000,764.000000,764.000000,764.000000,764.000000
16,765.000000,765.000000,765.000000,765.000000,765.000000,765.000000,765.000000,765.000000
16,766.000000,766.000000,766.000000,766.000000,766.000000,766.000000,766.000000,766.000000
16,767.000000,767.000000,767.000000,767.000000,767.000000,767.000000,767.000000,767.000000
16,768.000000,768.000000,768.000000,768.000000,768.000000,768.000000,768.000000,768.000000
16,769.000000,769.000000,769.000000,769.000000,769.000000,769.000000,769.000000,769.000000
16,770.000000,770.000000,770.000000,770.000000,770.000000,770.000000,770.000000,770.000000
16,771.000000,771.000000,771.000000,771.000000,771.000000,771.000000,771.000000,771.000000
16,772.000000,772.000000,772.000000,772.000000,772.000000,772.000000,772.000000,772.000000
16,773.000000,773.000000,773.000000,773.000000,773.000000,773.000000,773.000000,773.000000
16,774.000000,774.000000,774.000000,774.000000,774.000000,774.000000,774.000000,774.000000
16,775.000000,775.000000,775.000000,775.000000,775.000000,775.000000,775.000000,775.000000
16,776.000000,776.000000,776.000000,776.000000,776.000000,776.000000,776.000000,776.000000
16,777.000000,777.000000,777.000000,777.000000,777.000000,777.000000,777.000000,777.000000
16,778.000000,778.000000,778.000000,778.000000,778.000000,778.000000,778.000000,778.000000
16,779.000000,779.000000,779.000000,779.000000,779.000000,779.000000,779.000000,779.000000
16,780.000000,780.000000,780.000000,780.000000,780.000000,780.000000,780.000000,780.000000
16,781.000000,781.000000,781.000000,781.000000,781.000000,781.000000,781.000000,781.000000
16,782.000000,782.000000,782.000000,782.000000,782.000000,782.000000,782.000000,782.000000
16,783.000000,783.000000,783.000000,783.000000,783.000000,783.000000,783.000000,783.000000
16,784.000000,784.000000,784.000000,784.000000,784.000000,784.000000,784.000000,784.000000
16,785.000000,785.000000,785.000000,785.000000,785.000000,785.000000,785.000000,785.000000
16,786.000000,786.000000,786.000000,786.000000,786.000000,786.000000,786.000000,786.000000
16,787.000000,787.000000,787.000000,787.000000,787.000000,787.000000,787.000000,787.000000
16,788.000000,788.000000,788.000000,788.000000,788.000000,788.000000,788.000000,788.000000
16,789.000000,789.000000,789.000000,789.000000,789.000000,789.000000,789.000000,789.000000
16,790.000000,790.000000,790.000000,790.000000,790.000000,790.000000,790.000000,790.000000
16,791.000000,791.000000,791.000000,791.000000,791.000000,791.000000,791.000000,791.000000
16,792.000000,792.000000,792.000000,792.000000,792.000000,792.000000,792.000000,792.000000
16,793.000000,793.000000,793.000000,793.000000,793.000000,793.000000,793.000000,793.000000
16,794.000000,794.000000,794.000000,794.000000,794.000000,794.000000,794.000000,794.000000
16,795.000000,795.000000,795.000000,795.000000,795.000000,795.000000,795.000000,795.000000
16,796.000000,796.000000,796.000000,796.000000,796.000000,796.000000,796.000000,796.000000
16,797.000000,797.000000,797.000000,797.000000,797.000000,797.000000,797.000000,797.000000
16,798.000000,798.000000,798.000000,798.000000,798.000000,798.000000,798.000000,798.000000
16,799.000000,799.000000,799.000000,799.000000,799.000000,799.000000,799.000000,799.000000
17,800.000000,800.000000,800.000000,800.000000,800.000000,800.000000,800.000000,800.000000
17,801.000000,801.000000,801.000000,801.000000,801.000000,801.000000,801.000000,801.000000
17,802.000000,802.000000,802.000000,802.000000,802.000000,802.000000,802.000000,802.000000
17,803.000000,803.000000,803.000000,803.000000,803.000000,803.000000,803.000000,803.000000
17,804.000000,804.000000,804.000000,804.000000,804.000000,804.000000,804.000000,804.000000
17,805.000000,805.000000,805.000000,805.000000,805.000000,805.000000,805.000000,805.000000
17,806.000000,806.000000,806.000000,806.000000,806.000000,806.000000,806.000000,806.000000
17,807.000000,807.000000,807.000000,807.000000,807.000000,807.000000,807.000000,807.000000
17,808.000000,808.000000,808.000000,808.000000,808.000000,808.000000,808.000000,808.000000
17,809.000000,809.000000,809.000000,809.000000,809.000000,809.000000,809.000000,809.000000
17,810.000000,810.000000,810.000000,810.000000,810.000000,810.000000,810.000000,810.000000
17,811.000000,811.000000,811.000000,811.000000,811.000000,811.000000,811.000000,811.000000
17,812.000000,812.000000,812.000000,812.000000,812.000000,812.000000,812.000000,812.000000
17,813.000000,813.000000,813.000000,813.000000,813.000000,813.000000,813.000000,813.000000
17,814.000000,814.000000,814.000000,814.000000,814.000000,814.000000,814.000000,814.000000
17,815.000000,815.000000,815.000000,815.000000,815.000000,815.000000,815.000000,815.000000
17,816.000000,816.000000,816.000000,816.000000,816.000000,816.000000,816.000000,816.000000
17,817.000000,817.000000,817.000000,817.000000,817.000000,817.000000,817.000000,817.000000
17,818.000000,818.000000,818.000000,818.000000,818.000000,818.000000,818.000000,818.000000
17,819.000000,819.000000,819.000000,819.000000,819.000000,819.000000,819.000000,819.000000
17,820.000000,820.000000,820.000000,820.000000,820.000000,820.000000,820.000000,820.000000
17,821.000000,821.000000,821.000000,821.000000,821.000000,821.000000,821.000000,821.000000
17,822.000000,822.000000,822.000000,822.000000,822.000000,822.000000,822.000000,822.000000
17,823.000000,823.000000,823.000000,823.000000,823.000000,823.000000,823.000000,823.000000
17,824.000000,824.000000,824.000000,824.000000,824.000000,824.000000,824.000000,824.000000
17,825.000000,825.000000,825.000000,825.000000,825.000000,825.000000,825.000000,825.000000
17,826.000000,826.000000,826.000000,826.000000,826.000000,826.000000,826.000000,826.000000
17,827.000000,827.000000,827.000000,827.000000,827.000000,827.000000,827.000000,827.000000
17,828.000000,828.000000,828.000000,828.000000,828.000000,828.000000,828.000000,828.000000
17,829.000000,829.000000,829.000000,829.000000,829.000000,829.000000,829.000000,829.000000
17,830.000000,830.000000,830.000000,830.000000,830.000000,830.000000,830.000000,830.000000
17,831.000000,831.000000,831.000000,831.000000,831.000000,831.000000,831.000000,831.000000
17,832.000000,832.000000,832.000000,832.000000,832.000000,832.000000,832.000000,832.000000
17,833.000000,833.000000,833.000000,833.000000,833.000000,833.000000,833.000000,833.000000
17,834.000000,834.000000,834.000000,834.000000,834.000000,834.000000,834.000000,834.000000
17,835.000000,835.000000,835.000000,835.000000,835.000000,835.000000,835.000000,835.000000
17,836.000000,836.000000,836.000000,836.000000,836.000000,836.000000,836.000000,836.000000
17,837.000000,837.000000,837.000000,837.000000,837.000000,837.000000,837.000000,837.000000
17,838.000000,838.000000,838.000000,838.000000,838.000000,838.000000,838.000000,838.000000
17,839.000000,839.000000,839.000000,839.000000,839.000000,839.000000,839.000000,839.000000
17,840.000000,840.000000,840.000000,840.000000,840.000000,840.000000,840.000000,840.000000
17,841.000000,841.000000,841.000000,841.000000,841.000000,841.000000,841.000000,841.000000
17,842.000000,842.000000,842.000000,842.000000,842.000000,842.000000,842.000000,842.000000
17,843.000000,843.000000,843.000000,843.000000,843.000000,843.000000,843.000000,843.000000
17,844.000000,844.000000,844.000000,844.000000,844.000000,844.000000,844.000000,844.000000
17,845.000000,845.000000,845.000000,845.000000,845.000000,845.000000,845.000000,845.000000
17,846.000000,846.000000,846.000000,846.000000,846.000000,846.000000,846.000000,846.000000
17,847.000000,847.000000,847.000000,847.000000,847.000000,847.000000,847.000000,847.000000
17,848.000000,848.000000,848.000000,848.000000,848.000000,848.000000,848.000000,848.000000
17,849.000000,849.000000,849.000000,849.000000,849.000000,849.000000,849.000000,849.000000
18,850.000000,850.000000,850.000000,850.000000,850.000000,850.000000,850.000000,850.000000
18,851.000000,851.000000,851.000000,851.000000,851.000000,851.000000,851.000000,851.000000
18,852.000000,852.000000,852.000000,852.000000,852.000000,852.000000,852.000000,852.000000
18,853.000000,853.000000,853.000000,853.000000,853.000000,853.000000,853.000000,853.000000
18,854.000000,854.000000,854.000000,854.000000,854.000000,854.000000,854.000000,854.000000
18,855.000000,855.000000,855.000000,855.000000,855.000000,855.000000,855.000000,855.000000
18,856.000000,856.000000,856.000000,856.000000,856.000000,856.000000,856.000000,856.000000
18,857.000000,857.000000,857.000000,857.000000,857.000000,857.000000,857.000000,857.000000
18,858.000000,858.000000,858.000000,858.000000,858.000000,858.000000,858.000000,858.000000
18,859.000000,859.000000,859.000000,859.000000,859.000000,859.000000,859.000000,859.000000
18,860.000000,860.000000,860.000000,860.000000,860.000000,860.000000,860.000000,860.000000
18,861.000000,861.000000,861.000000,861.000000,861.000000,861.000000,861.000000,861.000000
18,862.000000,862.000000,862.000000,862.000000,862.000000,862.000000,862.000000,862.000000
18,863.000000,863.000000,863.000000,863.000000,863.000000,863.000000,863.000000,863.000000
18,864.000000,864.000000,864.000000,864.000000,864.000000,864.000000,864.000000,864.000000
18,865.000000,865.000000,865.000000,865.000000,865.000000,865.000000,865.000000,865.000000
18,866.000000,866.000000,866.000000,866.000000,866.000000,866.000000,866.000000,866.000000
18,867.000000,867.000000,867.000000,867.000000,867.000000,867.000000,867.000000,867.000000
18,868.000000,868.000000,868.000000,868.000000,868.000000,868.000000,868.000000,868.000000
18,869.000000,869.000000,869.000000,869.000000,869.000000,869.000000,869.000000,869.000000
18,870.000000,870.000000,870.000000,870.000000,870.000000,870.000000,870.000000,870.000000
18,871.000000,871.000000,871.000000,871.000000,871.000000,871.000000,871.000000,871.000000
18,872.000000,872.000000,872.000000,872.000000,872.000000,872.000000,872.000000,872.000000
18,873.000000,873.000000,873.000000,873.000000,873.000000,873.000000,873.000000,873.000000
18,874.000000,874.000000,874.000000,874.000000,874.000000,874.000000,874.000000,874.000000
18,875.000000,875.000000,875.000000,875.000000,875.000000,875.000000,875.000000,875.000000
18,876.000000,876.000000,876.000000,876.000000,876.000000,876.000000,876.000000,876.000000
18,877.000000,877.000000,877.000000,877.000000,877.000000,877.000000,877.000000,877.000000
18,878.000000,878.000000,878.000000,878.000000,878.000000,878.000000,878.000000,878.000000
18,879.000000,879.000000,879.000000,879.000000,879.000000,879.000000,879.000000,879.000000
18,880.000000,880.000000,880.000000,880.000000,880.000000,880.000000,880.000000,880.000000
18,881.000000,881.000000,881.000000,881.000000,881.000000,881.000000,881.000000,881.000000
18,882.000000,882.000000,882.000000,882.000000,882.000000,882.000000,882.000000,882.000000
18,883.000000,883.000000,883.000000,883.000000,883.000000,883.000000,883.000000,883.000000
18,884.000000,884.000000,884.000000,884.000000,884.000000,884.000000,884.000000,884.000000
18,885.000000,885.000000,885.000000,885.000000,885.000000,885.000000,885.000000,885.000000
18,886.000000,886.000000,886.000000,886.000000,886.000000,886.000000,886.000000,886.000000
18,887.000000,887.000000,887.000000,887.000000,887.000000,887.000000,887.000000,887.000000
18,888.000000,888.000000,888.000000,888.000000,888.000000,888.000000,888.000000,888.000000
18,889.000000,889.000000,889.000000,889.000000,889.000000,889.000000,889.000000,889.000000
18,890.000000,890.000000,890.000000,890.000000,890.000000,890.000000,890.000000,890.000000
18,891.000000,891.000000,891.000000,891.000000,891.000000,891.000000,891.000000,891.000000
18,892.000000,892.000000,892.000000,892.000000,892.000000,892.000000,892.000000,892.000000
18,893.000000,893.000000,893.000000,893.000000,893.000000,893.000000,893.000000,893.000000
18,894.000000,894.000000,894.000000,894.000000,894.000000,894.000000,894.000000,894.000000
18,895.000000,895.000000,895.000000,895.000000,895.000000,895.000000,895.000000,895.000000
18,896.000000,896.000000,896.000000,896.000000,896.000000,896.000000,896.000000,896.000000
18,897.000000,897.000000,897.000000,897.000000,897.000000,897.000000,897.000000,897.000000
18,898.000000,898.000000,898.000000,898.000000,898.000000,898.000000,898.000000,898.000000
18,899.000000,899.000000,899.000000,899.000000,899.000000,899.000000,899.000000,899.000000
19,900.000000,900.000000,900.000000,900.000000,900.000000,900.000000,900.000000,900.000000
19,901.000000,901.000000,901.000000,901.000000,901.000000,901.000000,901.000000,901.000000
19,902.000000,902.000000,902.000000,902.000000,902.000000,902.000000,902.000000,902.000000
19,903.000000,903.000000,903.000000,903.000000,903.000000,903.000000,903.000000,903.000000
19,904.000000,904.000000,904.000000,904.000000,904.000000,904.000000,904.000000,904.000000
19,905.000000,905.000000,905.000000,905.000000,905.000000,905.000000,905.000000,905.000000
19,906.000000,906.000000,906.000000,906.000000,906.000000,906.000000,906.000000,906.000000
19,907.000000,907.000000,907.000000,907.000000,907.000000,907.000000,907.000000,907.000000
19,908.000000,908.000000,908.000000,908.000000,908.000000,908.000000,908.000000,908.000000
19,909.000000,909.000000,909.000000,909.000000,909.000000,909.000000,909.000000,909.000000
19,910.000000,910.000000,910.000000,910.000000,910.000000,910.000000,910.000000,910.000000
19,911.000000,911.000000,911.000000,911.000000,911.000000,911.000000,911.000000,911.000000
19,912.000000,912.000000,912.000000,912.000000,912.000000,912.000000,912.000000,912.000000
19,913.000000,913.000000,913.000000,913.000000,913.000000,913.000000,913.000000,913.000000
19,914.000000,914.000000,914.000000,914.000000,914.000000,914.000000,914.000000,914.000000
19,915.000000,915.000000,915.000000,915.000000,915.000000,915.000000,915.000000,915.000000
19,916.000000,916.000000,916.000000,916.000000,916.000000,916.000000,916.000000,916.000000
19,917.000000,917.000000,917.000000,917.000000,917.000000,917.000000,917.000000,917.000000
19,918.000000,918.000000,918.000000,918.000000,918.000000,918.000000,918.000000,918.000000
19,919.000000,919.000000,919.000000,919.000000,919.000000,919.000000,919.000000,919.000000
19,920.000000,920.000000,920.000000,920.000000,920.000000,920.000000,920.000000,920.000000
19,921.000000,921.000000,921.000000,921.000000,921.000000,921.000000,921.000000,921.000000
19,922.000000,922.000000,922.000000,922.000000,922.000000,922.000000,922.000000,922.000000
19,923.000000,923.000000,923.000000,923.000000,923.000000,923.000000,923.000000,923.000000
19,924.000000,924.000000,924.000000,924.000000,924.000000,924.000000,924.000000,924.000000
19,925.000000,925.000000,925.000000,925.000000,925.000000,925.000000,925.000000,925.000000
19,926.000000,926.000000,926.000000,926.000000,926.000000,926.000000,926.000000,926.000000
19,927.000000,927.000000,927.000000,927.000000,927.000000,927.000000,927.000000,927.000000
19,928.000000,928.000000,928.000000,928.000000,928.000000,928.000000,928.000000,928.000000
19,929.000000,929.000000,929.000000,929.000000,929.000000,929.000000,929.000000,929.000000
19,930.000000,930.000000,930.000000,930.000000,930.000000,930.000000,930.000000,930.000000
19,931.000000,931.000000,931.000000,931.000000,931.000000,931.000000,931.000000,931.000000
19,932.000000,932.000000,932.000000,932.000000,932.000000,932.000000,932.000000,932.000000
19,933.000000,933.000000,933.000000,933.000000,933.000000,933.000000,933.000000,933.000000
19,934.000000,934.000000,934.000000,934.000000,934.000000,934.000000,934.000000,934.000000
19,935.000000,935.000000,935.000000,935.000000,935.000000,935.000000,935.000000,935.000000
19,936.000000,936.000000,936.000000,936.000000,936.000000,936.000000,936.000000,936.000000
19,937.000000,937.000000,937.000000,937.000000,937.000000,937.000000,937.000000,937.000000
19,938.000000,938.000000,938.000000,938.000000,938.000000,938.000000,938.000000,938.000000
19,939.000000,939.000000,939.000000,939.000000,939.000000,939.000000,939.000000,939.000000
19,940.000000,940.000000,940.000000,940.000000,940.000000,940.000000,940.000000,940.000000
19,941.000000,941.000000,941.000000,941.000000,941.000000,941.000000,941.000000,941.000000
19,942.000000,942.000000,942.000000,942.000000,942.000000,942.000000,942.000000,942.000000
19,943.000000,943.000000,943.000000,943.000000,943.000000,943.000000,943.000000,943.000000
19,944.000000,944.000000,944.000000,944.000000,944.000000,944.000000,944.000000,944.000000
19,945.000000,945.000000,945.000000,945.000000,945.000000,945.000000,945.000000,945.000000
19,946.000000,946.000000,946.000000,946.000000,946.000000,946.000000,946.000000,946.000000
19,947.000000,947.000000,947.000000,947.000000,947.000000,947.000000,947.000000,947.000000
19,948.000000,948.000000,948.000000,948.000000,948.000000,948.000000,948.000000,948.000000
19,949.000000,949.000000,949.000000,949.000000,949.000000,949.000000,949.000000,949.000000
20,950.000000,950.000000,950.000000,950.000000,950.000000,950.000000,950.000000,950.000000
20,951.000000,951.000000,951.000000,951.000000,951.000000,951.000000,951.000000,951.000000
20,952.000000,952.000000,952.000000,952.000000,952.000000,952.000000,952.000000,952.000000
20,953.000000,953.000000,953.000000,953.000000,953.000000,953.000000,953.000000,953.000000
20,954.000000,954.000000,954.000000,954.000000,954.000000,954.000000,954.000000,954.000000
20,955.000000,955.000000,955.000000,955.000000,955.000000,955.000000,955.000000,955.000000
20,956.000000,956.000000,956.000000,956.000000,956.000000,956.000000,956.000000,956.000000
20,957.000000,957.000000,957.000000,957.000000,957.000000,957.000000,957.000000,957.000000
20,958.000000,958.000000,958.000000,958.000000,958.000000,958.000000,958.000000,958.000000
20,959.000000,959.000000,959.000000,959.000000,959.000000,959.000000,959.000000,959.000000
20,960.000000,960.000000,960.000000,960.000000,960.000000,960.000000,960.000000,960.000000
20,961.000000,961.000000,961.000000,961.000000,961.000000,961.000000,961.000000,961.000000
20,962.000000,962.000000,962.000000,962.000000,962.000000,962.000000,962.000000,962.000000
20,963.000000,963.000000,963.000000,963.000000,963.000000,963.000000,963.000000,963.000000
20,964.000000,964.000000,964.000000,964.000000,964.000000,964.000000,964.000000,964.000000
20,965.000000,965.000000,965.000000,965.000000,965.000000,965.000000,965.000000,965.000000
20,966.000000,966.000000,966.000000,966.000000,966.000000,966.000000,966.000000,966.000000
20,967.000000,967.000000,967.000000,967.000000,967.000000,967.000000,967.000000,967.000000
20,968.000000,968.000000,968.000000,968.000000,968.000000,968.000000,968.000000,968.000000
20,969.000000,969.000000,969.000000,969.000000,969.000000,969.000000,969.000000,969.000000
20,970.000000,970.000000,970.000000,970.000000,970.000000,970.000000,970.000000,970.000000
20,971.000000,971.000000,971.000000,971.000000,971.000000,971.000000,971.000000,971.000000
20,972.000000,972.000000,972.000000,972.000000,972.000000,972.000000,972.000000,972.000000
20,973.000000,973.000000,973.000000,973.000000,973.000000,973.000000,973.000000,973.000000
20,974.000000,974.000000,974.000000,974.000000,974.000000,974.000000,974.000000,974.000000
20,975.000000,975.000000,975.000000,975.000000,975.000000,975.000000,975.000000,975.000000
20,976.000000,976.000000,976.000000,976.000000,976.000000,976.000000,976.000000,976.000000
20,977.000000,977.000000,977.000000,977.000000,977.000000,977.000000,977.000000,977.000000
20,978.000000,978.000000,978.000000,978.000000,978.000000,978.000000,978.000000,978.000000
20,979.000000,979.000000,979.000000,979.000000,979.000000,979.000000,979.000000,979.000000
20,980.000000,980.000000,980.000000,980.000000,980.000000,980.000000,980.000000,980.000000
20,981.000000,981.000000,981.000000,981.000000,981.000000,981.000000,981.000000,981.000000
20,982.000000,982.000000,982.000000,982.000000,982.000000,982.000000,982.000000,982.000000
20,983.000000,983.000000,983.000000,983.000000,983.000000,983.000000,983.000000,983.000000
20,984.000000,984.000000,984.000000,984.000000,984.000000,984.000000,984.000000,984.000000
20,985.000000,985.000000,985.000000,985.000000,985.000000,985.000000,985.000000,985.000000
20,986.000000,986.000000,986.000000,986.000000,986.000000,986.000000,986.000000,986.000000
20,987.000000,987.000000,987.000000,987.000000,987.000000,987.000000,987.000000,987.000000
20,988.000000,988.000000,988.000000,988.000000,988.000000,988.000000,988.000000,988.000000
20,989.000000,989.000000,989.000000,989.000000,989.000000,989.000000,989.000000,989.000000
20,990.000000,990.000000,990.000000,990.000000,990.000000,990.000000,990.000000,990.000000
20,991.000000,991.000000,991.000000,991.000000,991.000000,991.000000,991.000000,991.000000
20,992.000000,992.000000,992.000000,992.000000,992.000000,992.000000,992.000000,992.000000
20,993.000000,993.000000,993.000000,993.000000,993.000000,993.000000,993.000000,993.000000
20,994.000000,994.000000,994.000000,994.000000,994.000000,994.000000,994.000000,994.000000
20,995.000000,995.000000,995.000000,995.000000,995.000000,995.000000,995.000000,995.000000
20,996.000000,996.000000,996.000000,996.000000,996.000000,996.000000,996.000000,996.000000
20,997.000000,997.000000,997.000000,997.000000,997.000000,997.000000,997.000000,997.000000
20,998.000000,998.000000,998.000000,998.000000,998.000000,998.000000,998.000000,998.000000
20,999.000000,999.000000,999.000000,999.000000,999.000000,999.000000,999.000000,999.000000
21,1000.000000,1000.000000,1000.000000,1000.000000,1000.000000,1000.000000,1000.000000,1000.000000
21,1001.000000,1001.000000,1001.000000,1001.000000,1001.000000,1001.000000,1001.000000,1001.000000
21,1002.000000,1002.000000,1002.000000,1002.000000,1002.000000,1002.000000,1002.000000,1002.000000
21,1003.000000,1003.000000,1003.000000,1003.000000,1003.000000,1003.000000,1003.000000,1003.000000
21,1004.000000,1004.000000,1004.000000,1004.000000,1004.000000,1004.000000,1004.000000,1004.000000
21,1005.000000,1005.000000,1005.000000,1005.000000,1005.000000,1005.000000,1005.000000,1005.000000
21,1006.000000,1006.000000,1006.000000,1006.000000,1006.000000,1006.000000,1006.000000,1006.000000
21,1007.000000,1007.000000,1007.000000,1007.000000,1007.000000,1007.000000,1007.000000,1007.000000
21,1008.000000,1008.000000,1008.000000,1008.000000,1008.000000,1008.000000,1008.000000,1008.000000
21,1009.000000,1009.000000,1009.000000,1009.000000,1009.000000,1009.000000,1009.000000,1009.000000
21,1010.000000,1010.000000,1010.000000,1010.000000,1010.000000,1010.000000,1010.000000,1010.000000
21,1011.000000,1011.000000,1011.000000,1011.000000,1011.000000,1011.000000,1011.000000,1011.000000
21,1012.000000,1012.000000,1012.000000,1012.000000,1012.000000,1012.000000,1012.000000,1012.000000
21,1013.000000,1013.000000,1013.000000,1013.000000,1013.000000,1013.000000,1013.000000,1013.000000
21,1014.000000,1014.000000,1014.000000,1014.000000,1014.000000,1014.000000,1014.000000,1014.000000
21,1015.000000,1015.000000,1015.000000,1015.000000,1015.000000,1015.000000,1015.000000,1015.000000
21,1016.000000,1016.000000,1016.000000,1016.000000,1016.000000,1016.000000,1016.000000,1016.000000
21,1017.000000,1017.000000,1017.000000,1017.000000,1017.000000,1017.000000,1017.000000,1017.000000
21,1018.000000,1018.000000,1018.000000,1018.000000,1018.000000,1018.000000,1018.000000,1018.000000
21,1019.000000,1019.000000,1019.000000,1019.000000,1019.000000,1019.000000,1019.000000,1019.000000
21,1020.000000,1020.000000,1020.000000,1020.000000,1020.000000,1020.000000,1020.000000,1020.000000
21,1021.000000,1021.000000,1021.000000,1021.000000,1021.000000,1021.000000,1021.000000,1021.000000
21,1022.000000,1022.000000,1022.000000,1022.000000,1022.000000,1022.000000,1022.000000,1022.000000
21,1023.000000,1023.000000,1023.000000,1023.000000,1023.000000,1023.000000,1023.000000,1023.000000
21,1024.000000,1024.000000,1024.000000,1024.000000,1024.000000,1024.000000,1024.000000,1024.000000
21,1025.000000,1025.000000,1025.000000,1025.000000,1025.000000,1025.000000,1025.000000,1025.000000
21,1026.000000,1026.000000,1026.000000,1026.000000,1026.000000,1026.000000,1026.000000,1026.000000
21,1027.000000,1027.000000,1027.000000,1027.000000,1027.000000,1027.000000,1027.000000,1027.000000
21,1028.000000,1028.000000,1028.000000,1028.000000,1028.000000,1028.000000,1028.000000,1028.000000
21,1029.000000,1029.000000,1029.000000,1029.000000,1029.000000,1029.000000,1029.000000,1029.000000
21,1030.000000,1030.000000,1030.000000,1030.000000,1030.000000,1030.000000,1030.000000,1030.000000
21,1031.000000,1031.000000,1031.000000,1031.000000,1031.000000,1031.000000,1031.000000,1031.000000
21,1032.000000,1032.000000,1032.000000,1032.000000,1032.000000,1032.000000,1032.000000,1032.000000
21,1033.000000,1033.000000,1033.000000,1033.000000,1033.000000,1033.000000,1033.000000,1033.000000
21,1034.000000,1034.000000,1034.000000,1034.000000,1034.000000,1034.000000,1034.000000,1034.000000
21,1035.000000,1035.000000,1035.000000,1035.000000,1035.000000,1035.000000,1035.000000,1035.000000
21,1036.000000,1036.000000,1036.000000,1036.000000,1036.000000,1036.000000,1036.000000,1036.000000
21,1037.000000,1037.000000,1037.000000,1037.000000,1037.000000,1037.000000,1037.000000,1037.000000
21,1038.000000,1038.000000,1038.000000,1038.000000,1038.000000,1038.000000,1038.000000,1038.000000
21,1039.000000,1039.000000,1039.000000,1039.000000,1039.000000,1039.000000,1039.000000,1039.000000
21,1040.000000,1040.000000,1040.000000,1040.000000,1040.000000,1040.000000,1040.000000,1040.000000
21,1041.000000,1041.000000,1041.000000,1041.000000,1041.000000,1041.000000,1041.000000,1041.000000
21,1042.000000,1042.000000,1042.000000,1042.000000,1042.000000,1042.000000,1042.000000,1042.000000
21,1043.000000,1043.000000,1043.000000,1043.000000,1043.000000,1043.000000,1043.000000,1043.000000
21,1044.000000,1044.000000,1044.000000,1044.000000,1044.000000,1044.000000,1044.000000,1044.000000
21,1045.000000,1045.000000,1045.000000,1045.000000,1045.000000,1045.000000,1045.000000,1045.000000
21,1046.000000,1046.000000,1046.000000,1046.000000,1046.000000,1046.000000,1046.000000,1046.000000
21,1047.000000,1047.000000,1047.000000,1047.000000,1047.000000,1047.000000,1047.000000,1047.000000
21,1048.000000,1048.000000,1048.000000,1048.000000,1048.000000,1048.000000,1048.000000,1048.000000
21,1049.000000,1049.000000,1049.000000,1049.000000,1049.000000,1049.000000,1049.000000,1049.000000
22,1050.000000,1050.000000,1050.000000,1050.000000,1050.000000,1050.000000,1050.000000,1050.000000
22,1051.000000,1051.000000,1051.000000,1051.000000,1051.000000,1051.000000,1051.000000,1051.000000
22,1052.000000,1052.000000,1052.000000,1052.000000,1052.000000,1052.000000,1052.000000,1052.000000
22,1053.000000,1053.000000,1053.000000,1053.000000,1053.000000,1053.000000,1053.000000,1053.000000
22,1054.000000,1054.000000,1054.000000,1054.000000,1054.000000,1054.000000,1054.000000,1054.000000
22,1055.000000,1055.000000,1055.000000,1055.000000,1055.000000,1055.000000,1055.000000,1055.000000
22,1056.000000,1056.000000,1056.000000,1056.000000,1056.000000,1056.000000,1056.000000,1056.000000
22,1057.000000,1057.000000,1057.000000,1057.000000,1057.000000,1057.000000,1057.000000,1057.000000
22,1058.000000,1058.000000,1058.000000,1058.000000,1058.000000,1058.000000,1058.000000,1058.000000
22,1059.000000,1059.000000,1059.000000,1059.000000,1059.000000,1059.000000,1059.000000,1059.000000
22,1060.000000,1060.000000,1060.000000,1060.000000,1060.000000,1060.000000,1060.000000,1060.000000
22,1061.000000,1061.000000,1061.000000,1061.000000,1061.000000,1061.000000,1061.000000,1061.000000
22,1062.000000,1062.000000,1062.000000,1062.000000,1062.000000,1062.000000,1062.000000,1062.000000
22,1063.000000,1063.000000,1063.000000,1063.000000,1063.000000,1063.000000,1063.000000,1063.000000
22,1064.000000,1064.000000,1064.000000,1064.000000,1064.000000,1064.000000,1064.000000,1064.000000
22,1065.000000,1065.000000,1065.000000,1065.000000,1065.000000,1065.000000,1065.000000,1065.000000
22,1066.000000,1066.000000,1066.000000,1066.000000,1066.000000,1066.000000,1066.000000,1066.000000
22,1067.000000,1067.000000,1067.000000,1067.000000,1067.000000,1067.000000,1067.000000,1067.000000
22,1068.000000,1068.000000,1068.000000,1068.000000,1068.000000,1068.000000,1068.000000,1068.000000
22,1069.000000,1069.000000,1069.000000,1069.000000,1069.000000,1069.000000,1069.000000,1069.000000
22,1070.000000,1070.000000,1070.000000,1070.000000,1070.000000,1070.000000,1070.000000,1070.000000
22,1071.000000,1071.000000,1071.000000,1071.000000,1071.000000,1071.000000,1071.000000,1071.000000
22,1072.000000,1072.000000,1072.000000,1072.000000,1072.000000,1072.000000,1072.000000,1072.000000
22,1073.000000,1073.000000,1073.000000,1073.000000,1073.000000,1073.000000,1073.000000,1073.000000
22,1074.000000,1074.000000,1074.000000,1074.000000,1074.000000,1074.000000,1074.000000,1074.000000
22,1075.000000,1075.000000,1075.000000,1075.000000,1075.000000,1075.000000,1075.000000,1075.000000
22,1076.000000,1076.000000,1076.000000,1076.000000,1076.000000,1076.000000,1076.000000,1076.000000
22,1077.000000,1077.000000,1077.000000,1077.000000,1077.000000,1077.000000,1077.000000,1077.000000
22,1078.000000,1078.000000,1078.000000,1078.000000,1078.000000,1078.000000,1078.000000,1078.000000
22,1079.000000,1079.000000,1079.000000,1079.000000,1079.000000,1079.000000,1079.000000,1079.000000
22,1080.000000,1080.000000,1080.000000,1080.000000,1080.000000,1080.000000,1080.000000,1080.000000
22,1081.000000,1081.000000,1081.000000,1081.000000,1081.000000,1081.000000,1081.000000,1081.000000
22,1082.000000,1082.000000,1082.000000,1082.000000,1082.000000,1082.000000,1082.000000,1082.000000
22,1083.000000,1083.000000,1083.000000,1083.000000,1083.000000,1083.000000,1083.000000,1083.000000
22,1084.000000,1084.000000,1084.000000,1084.000000,1084.000000,1084.000000,1084.000000,1084.000000
22,1085.000000,1085.000000,1085.000000,1085.000000,1085.000000,1085.000000,1085.000000,1085.000000
22,1086.000000,1086.000000,1086.000000,1086.000000,1086.000000,1086.000000,1086.000000,1086.000000
22,1087.000000,1087.000000,1087.000000,1087.000000,1087.000000,1087.000000,1087.000000,1087.000000
22,1088.000000,1088.000000,1088.000000,1088.000000,1088.000000,1088.000000,1088.000000,1088.000000
22,1089.000000,1089.000000,1089.000000,1089.000000,1089.000000,1089.000000,1089.000000,1089.000000
22,1090.000000,1090.000000,1090.000000,1090.000000,1090.000000,1090.000000,1090.000000,1090.000000
22,1091.000000,1091.000000,1091.000000,1091.000000,1091.000000,1091.000000,1091.000000,1091.000000
22,1092.000000,1092.000000,1092.000000,1092.000000,1092.000000,1092.000000,1092.000000,1092.000000
22,1093.000000,1093.000000,1093.000000,1093.000000,1093.000000,1093.000000,1093.000000,1093.000000
22,1094.000000,1094.000000,1094.000000,1094.000000,1094.000000,1094.000000,1094.000000,1094.000000
22,1095.000000,1095.000000,1095.000000,1095.000000,1095.000000,1095.000000,1095.000000,1095.000000
22,1096.000000,1096.000000,1096.000000,1096.000000,1096.000000,1096.000000,1096.000000,1096.000000
22,1097.000000,1097.000000,1097.000000,1097.000000,1097.000000,1097.000000,1097.000000,1097.000000
22,1098.000000,1098.000000,1098.000000,1098.000000,1098.000000,1098.000000,1098.000000,1098.000000
22,1099.000000,1099.000000,1099.000000,1099.000000,1099.000000,1099.000000,1099.000000,1099.000000
23,1100.000000,1100.000000,1100.000000,1100.000000,1100.000000,1100.000000,1100.000000,1100.000000
23,1101.000000,1101.000000,1101.000000,1101.000000,1101.000000,1101.000000,1101.000000,1101.000000
23,1102.000000,1102.000000,1102.000000,1102.000000,1102.000000,1102.000000,1102.000000,1102.000000
23,1103.000000,1103.000000,1103.000000,1103.000000,1103.000000,1103.000000,1103.000000,1103.000000
23,1104.000000,1104.000000,1104.000000,1104.000000,1104.000000,1104.000000,1104.000000,1104.000000
23,1105.000000,1105.000000,1105.000000,1105.000000,1105.000000,1105.000000,1105.000000,1105.000000
23,1106.000000,1106.000000,1106.000000,1106.000000,1106.000000,1106.000000,1106.000000,1106.000000
23,1107.000000,1107.000000,1107.000000,1107.000000,1107.000000,1107.000000,1107.000000,1107.000000
23,1108.000000,1108.000000,1108.000000,1108.000000,1108.000000,1108.000000,1108.000000,1108.000000
23,1109.000000,1109.000000,1109.000000,1109.000000,1109.000000,1109.000000,1109.000000,1109.000000
23,1110.000000,1110.000000,1110.000000,1110.000000,1110.000000,1110.000000,1110.000000,1110.000000
23,1111.000000,1111.000000,1111.000000,1111.000000,1111.000000,1111.000000,1111.000000,1111.000000
23,1112.000000,1112.000000,1112.000000,1112.000000,1112.000000,1112.000000,1112.000000,1112.000000
23,1113.000000,1113.000000,1113.000000,1113.000000,1113.000000,1113.000000,1113.000000,1113.000000
23,1114.000000,1114.000000,1114.000000,1114.000000,1114.000000,1114.000000,1114.000000,1114.000000
23,1115.000000,1115.000000,1115.000000,1115.000000,1115.000000,1115.000000,1115.000000,1115.000000
23,1116.000000,1116.000000,1116.000000,1116.000000,1116.000000,1116.000000,1116.000000,1116.000000
23,1117.000000,1117.000000,1117.000000,1117.000000,1117.000000,1117.000000,1117.000000,1117.000000
23,1118.000000,1118.000000,1118.000000,1118.000000,1118.000000,1118.000000,1118.000000,1118.000000
23,1119.000000,1119.000000,1119.000000,1119.000000,1119.000000,1119.000000,1119.000000,1119.000000
23,1120.000000,1120.000000,1120.000000,1120.000000,1120.000000,1120.000000,1120.000000,1120.000000
23,1121.000000,1121.000000,1121.000000,1121.000000,1121.000000,1121.000000,1121.000000,1121.000000
23,1122.000000,1122.000000,1122.000000,1122.000000,1122.000000,1122.000000,1122.000000,1122.000000
23,1123.000000,1123.000000,1123.000000,1123.000000,1123.000000,1123.000000,1123.000000,1123.000000
23,1124.000000,1124.000000,1124.000000,1124.000000,1124.000000,1124.000000,1124.000000,1124.000000
23,1125.000000,1125.000000,1125.000000,1125.000000,1125.000000,1125.000000,1125.000000,1125.000000
23,1126.000000,1126.000000,1126.000000,1126.000000,1126.000000,1126.000000,1126.000000,1126.000000
23,1127.000000,1127.000000,1127.000000,1127.000000,1127.000000,1127.000000,1127.000000,1127.000000
23,1128.000000,1128.000000,1128.000000,1128.000000,1128.000000,1128.000000,1128.000000,1128.000000
23,1129.000000,1129.000000,1129.000000,1129.000000,1129.000000,1129.000000,1129.000000,1129.000000
23,1130.000000,1130.000000,1130.000000,1130.000000,1130.000000,1130.000000,1130.000000,1130.000000
23,1131.000000,1131.000000,1131.000000,1131.000000,1131.000000,1131.000000,1131.000000,1131.000000
23,1132.000000,1132.000000,1132.000000,1132.000000,1132.000000,1132.000000,1132.000000,1132.000000
23,1133.000000,1133.000000,1133.000000,1133.000000,1133.000000,1133.000000,1133.000000,1133.000000
23,1134.000000,1134.000000,1134.000000,1134.000000,1134.000000,1134.000000,1134.000000,1134.000000
23,1135.000000,1135.000000,1135.000000,1135.000000,1135.000000,1135.000000,1135.000000,1135.000000
23,1136.000000,1136.000000,1136.000000,1136.000000,1136.000000,1136.000000,1136.000000,1136.000000
23,1137.000000,1137.000000,1137.000000,1137.000000,1137.000000,1137.000000,1137.000000,1137.000000
23,1138.000000,1138.000000,1138.000000,1138.000000,1138.000000,1138.000000,1138.000000,1138.000000
23,1139.000000,1139.000000,1139.000000,1139.000000,1139.000000,1139.000000,1139.000000,1139.000000
23,1140.000000,1140.000000,1140.000000,1140.000000,1140.000000,1140.000000,1140.000000,1140.000000
23,1141.000000,1141.000000,1141.000000,1141.000000,1141.000000,1141.000000,1141.000000,1141.000000
23,1142.000000,1142.000000,1142.000000,1142.000000,1142.000000,1142.000000,1142.000000,1142.000000
23,1143.000000,1143.000000,1143.000000,1143.000000,1143.000000,1143.000000,1143.000000,1143.000000
23,1144.000000,1144.000000,1144.000000,1144.000000,1144.000000,1144.000000,1144.000000,1144.000000
23,1145.000000,1145.000000,1145.000000,1145.000000,1145.000000,1145.000000,1145.000000,1145.000000
23,1146.000000,1146.000000,1146.000000,1146.000000,1146.000000,1146.000000,1146.000000,1146.000000
23,1147.000000,1147.000000,1147.000000,1147.000000,1147.000000,1147.000000,1147.000000,1147.000000
23,1148.000000,1148.000000,1148.000000,1148.000000,1148.000000,1148.000000,1148.000000,1148.000000
23,1149.000000,1149.000000,1149.000000,1149.000000,1149.000000,1149.000000,1149.000000,1149.000000
24,1150.000000,1150.000000,1150.000000,1150.000000,1150.000000,1150.000000,1150.000000,1150.000000
24,1151.000000,1151.000000,1151.000000,1151.000000,1151.000000,1151.000000,1151.000000,1151.000000
24,1152.000000,1152.000000,1152.000000,1152.000000,1152.000000,1152.000000,1152.000000,1152.000000
24,1153.000000,1153.000000,1153.000000,1153.000000,1153.000000,1153.000000,1153.000000,1153.000000
24,1154.000000,1154.000000,1154.000000,1154.000000,1154.000000,1154.000000,1154.000000,1154.000000
24,1155.000000,1155.000000,1155.000000,1155.000000,1155.000000,1155.000000,1155.000000,1155.000000
24,1156.000000,1156.000000,1156.000000,1156.000000,1156.000000,1156.000000,1156.000000,1156.000000
24,1157.000000,1157.000000,1157.000000,1157.000000,1157.000000,1157.000000,1157.000000,1157.000000
24,1158.000000,1158.000000,1158.000000,1158.000000,1158.000000,1158.000000,1158.000000,1158.000000
24,1159.000000,1159.000000,1159.000000,1159.000000,1159.000000,1159.000000,1159.000000,1159.000000
24,1160.000000,1160.000000,1160.000000,1160.000000,1160.000000,1160.000000,1160.000000,1160.000000
24,1161.000000,1161.000000,1161.000000,1161.000000,1161.000000,1161.000000,1161.000000,1161.000000
24,1162.000000,1162.000000,1162.000000,1162.000000,1162.000000,1162.000000,1162.000000,1162.000000
24,1163.000000,1163.000000,1163.000000,1163.000000,1163.000000,1163.000000,1163.000000,1163.000000
24,1164.000000,1164.000000,1164.000000,1164.000000,1164.000000,1164.000000,1164.000000,1164.000000
24,1165.000000,1165.000000,1165.000000,1165.000000,1165.000000,1165.000000,1165.000000,1165.000000
24,1166.000000,1166.000000,1166.000000,1166.000000,1166.000000,1166.000000,1166.000000,1166.000000
24,1167.000000,1167.000000,1167.000000,1167.000000,1167.000000,1167.000000,1167.000000,1167.000000
24,1168.000000,1168.000000,1168.000000,1168.000000,1168.000000,1168.000000,1168.000000,1168.000000
24,1169.000000,1169.000000,1169.000000,1169.000000,1169.000000,1169.000000,1169.000000,1169.000000
24,1170.000000,1170.000000,1170.000000,1170.000000,1170.000000,1170.000000,1170.000000,1170.000000
24,1171.000000,1171.000000,1171.000000,1171.000000,1171.000000,1171.000000,1171.000000,1171.000000
24,1172.000000,1172.000000,1172.000000,1172.000000,1172.000000,1172.000000,1172.000000,1172.000000
24,1173.000000,1173.000000,1173.000000,1173.000000,1173.000000,1173.000000,1173.000000,1173.000000
24,1174.000000,1174.000000,1174.000000,1174.000000,1174.000000,1174.000000,1174.000000,1174.000000
24,1175.000000,1175.000000,1175.000000,1175.000000,1175.000000,1175.000000,1175.000000,1175.000000
24,1176.000000,1176.000000,1176.000000,1176.000000,1176.000000,1176.000000,1176.000000,1176.000000
24,1177.000000,1177.000000,1177.000000,1177.000000,1177.000000,1177.000000,1177.000000,1177.000000
24,1178.000000,1178.000000,1178.000000,1178.000000,1178.000000,1178.000000,1178.000000,1178.000000
24,1179.000000,1179.000000,1179.000000,1179.000000,1179.000000,1179.000000,1179.000000,1179.000000
24,1180.000000,1180.000000,1180.000000,1180.000000,1180.000000,1180.000000,1180.000000,1180.000000
24,1181.000000,1181.000000,1181.000000,1181.000000,1181.000000,1181.000000,1181.000000,1181.000000
24,1182.000000,1182.000000,1182.000000,1182.000000,1182.000000,1182.000000,1182.000000,1182.000000
24,1183.000000,1183.000000,1183.000000,1183.000000,1183.000000,1183.000000,1183.000000,1183.000000
24,1184.000000,1184.000000,1184.000000,1184.000000,1184.000000,1184.000000,1184.000000,1184.000000
24,1185.000000,1185.000000,1185.000000,1185.000000,1185.000000,1185.000000,1185.000000,1185.000000
24,1186.000000,1186.000000,1186.000000,1186.000000,1186.000000,1186.000000,1186.000000,1186.000000
24,1187.000000,1187.000000,1187.000000,1187.000000,1187.000000,1187.000000,1187.000000,1187.000000
24,1188.000000,1188.000000,1188.000000,1188.000000,1188.000000,1188.000000,1188.000000,1188.000000
24,1189.000000,1189.000000,1189.000000,1189.000000,1189.000000,1189.000000,1189.000000,1189.000000
24,1190.000000,1190.000000,1190.000000,1190.000000,1190.000000,1190.000000,1190.000000,1190.000000
24,1191.000000,1191.000000,1191.000000,1191.000000,1191.000000,1191.000000,1191.000000,1191.000000
24,1192.000000,1192.000000,1192.000000,1192.000000,1192.000000,1192.000000,1192.000000,1192.000000
24,1193.000000,1193.000000,1193.000000,1193.000000,1193.000000,1193.000000,1193.000000,1193.000000
24,1194.000000,1194.000000,1194.000000,1194.000000,1194.000000,1194.000000,1194.000000,1194.000000
24,1195.000000,1195.000000,1195.000000,1195.000000,1195.000000,1195.000000,1195.000000,1195.000000
24,1196.000000,1196.000000,1196.000000,1196.000000,1196.000000,1196.000000,1196.000000,1196.000000
24,1197.000000,1197.000000,1197.000000,1197.000000,1197.000000,1197.000000,1197.000000,1197.000000
24,1198.000000,1198.000000,1198.000000,1198.000000,1198.000000,1198.000000,1198.000000,1198.000000
24,1199.000000,1199.000000,1199.000000,1199.000000,1199.000000,1199.000000,1199.000000,1199.000000
25,1200.000000,1200.000000,1200.000000,1200.000000,1200.000000,1200.000000,1200.000000,1200.000000
25,1201.000000,1201.000000,1201.000000,1201.000000,1201.000000,1201.000000,1201.000000,1201.000000
25,1202.000000,1202.000000,1202.000000,1202.000000,1202.000000,1202.000000,1202.000000,1202.000000
25,1203.000000,1203.000000,1203.000000,1203.000000,1203.000000,1203.000000,1203.000000,1203.000000
25,1204.000000,1204.000000,1204.000000,1204.000000,1204.000000,1204.000000,1204.000000,1204.000000
25,1205.000000,1205.000000,1205.000000,1205.000000,1205.000000,1205.000000,1205.000000,1205.000000
25,1206.000000,1206.000000,1206.000000,1206.000000,1206.000000,1206.000000,1206.000000,1206.000000
25,1207.000000,1207.000000,1207.000000,1207.000000,1207.000000,1207.000000,1207.000000,1207.000000
25,1208.000000,1208.000000,1208.000000,1208.000000,1208.000000,1208.000000,1208.000000,1208.000000
25,1209.000000,1209.000000,1209.000000,1209.000000,1209.000000,1209.000000,1209.000000,1209.000000
25,1210.000000,1210.000000,1210.000000,1210.000000,1210.000000,1210.000000,1210.000000,1210.000000
25,1211.000000,1211.000000,1211.000000,1211.000000,1211.000000,1211.000000,1211.000000,1211.000000
25,1212.000000,1212.000000,1212.000000,1212.000000,1212.000000,1212.000000,1212.000000,1212.000000
25,1213.000000,1213.000000,1213.000000,1213.000000,1213.000000,1213.000000,1213.000000,1213.000000
25,1214.000000,1214.000000,1214.000000,1214.000000,1214.000000,1214.000000,1214.000000,1214.000000
25,1215.000000,1215.000000,1215.000000,1215.000000,1215.000000,1215.000000,1215.000000,1215.000000
25,1216.000000,1216.000000,1216.000000,1216.000000,1216.000000,1216.000000,1216.000000,1216.000000
25,1217.000000,1217.000000,1217.000000,1217.000000,1217.000000,1217.000000,1217.000000,1217.000000
25,1218.000000,1218.000000,1218.000000,1218.000000,1218.000000,1218.000000,1218.000000,1218.000000
25,1219.000000,1219.000000,1219.000000,1219.000000,1219.000000,1219.000000,1219.000000,1219.000000
25,1220.000000,1220.000000,1220.000000,1220.000000,1220.000000,1220.000000,1220.000000,1220.000000
25,1221.000000,1221.000000,1221.000000,1221.000000,1221.000000,1221.000000,1221.000000,1221.000000
25,1222.000000,1222.000000,1222.000000,1222.000000,1222.000000,1222.000000,1222.000000,1222.000000
25,1223.000000,1223.000000,1223.000000,1223.000000,1223.000000,1223.000000,1223.000000,1223.000000
25,1224.000000,1224.000000,1224.000000,1224.000000,1224.000000,1224.000000,1224.000000,1224.000000
25,1225.000000,1225.000000,1225.000000,1225.000000,1225.000000,1225.000000,1225.000000,1225.000000
25,1226.000000,1226.000000,1226.000000,1226.000000,1226.000000,1226.000000,1226.000000,1226.000000
25,1227.000000,1227.000000,1227.000000,1227.000000,1227.000000,1227.000000,1227.000000,1227.000000
25,1228.000000,1228.000000,1228.000000,1228.000000,1228.000000,1228.000000,1228.000000,1228.000000
25,1229.000000,1229.000000,1229.000000,1229.000000,1229.000000,1229.000000,1229.000000,1229.000000
25,1230.000000,1230.000000,1230.000000,1230.000000,1230.000000,1230.000000,1230.000000,1230.000000
25,1231.000000,1231.000000,1231.000000,1231.000000,1231.000000,1231.000000,1231.000000,1231.000000
25,1232.000000,1232.000000,1232.000000,1232.000000,1232.000000,1232.000000,1232.000000,1232.000000
25,1233.000000,1233.000000,1233.000000,1233.000000,1233.000000,1233.000000,1233.000000,1233.000000
25,1234.000000,1234.000000,1234.000000,1234.000000,1234.000000,1234.000000,1234.000000,1234.000000
25,1235.000000,1235.000000,1235.000000,1235.000000,1235.000000,1235.000000,1235.000000,1235.000000
25,1236.000000,1236.000000,1236.000000,1236.000000,1236.000000,1236.000000,1236.000000,1236.000000
25,1237.000000,1237.000000,1237.000000,1237.000000,1237.000000,1237.000000,1237.000000,1237.000000
25,1238.000000,1238.000000,1238.000000,1238.000000,1238.000000,1238.000000,1238.000000,1238.000000
25,1239.000000,1239.000000,1239.000000,1239.000000,1239.000000,1239.000000,1239.000000,1239.000000
25,1240.000000,1240.000000,1240.000000,1240.000000,1240.000000,1240.000000,1240.000000,1240.000000
25,1241.000000,1241.000000,1241.000000,1241.000000,1241.000000,1241.000000,1241.000000,1241.000000
25,1242.000000,1242.000000,1242.000000,1242.000000,1242.000000,1242.000000,1242.000000,1242.000000
25,1243.000000,1243.000000,1243.000000,1243.000000,1243.000000,1243.000000,1243.000000,1243.000000
25,1244.000000,1244.000000,1244.000000,1244.000000,1244.000000,1244.000000,1244.000000,1244.000000
25,1245.000000,1245.000000,1245.000000,1245.000000,1245.000000,1245.000000,1245.000000,1245.000000
25,1246.000000,1246.000000,1246.000000,1246.000000,1246.000000,1246.000000,1246.000000,1246.000000
25,1247.000000,1247.000000,1247.000000,1247.000000,1247.000000,1247.000000,1247.000000,1247.000000
25,1248.000000,1248.000000,1248.000000,1248.000000,1248.000000,1248.000000,1248.000000,1248.000000
25,1249.000000,1249.000000,1249.000000,1249.000000,1249.000000,1249.000000,1249.000000,1249.000000
26,1250.000000,1250.000000,1250.000000,1250.000000,1250.000000,1250.000000,1250.000000,1250.000000
26,1251.000000,1251.000000,1251.000000,1251.000000,1251.000000,1251.000000,1251.000000,1251.000000
26,1252.000000,1252.000000,1252.000000,1252.000000,1252.000000,1252.000000,1252.000000,1252.000000
26,1253.000000,1253.000000,1253.000000,1253.000000,1253.000000,1253.000000,1253.000000,1253.000000
26,1254.000000,1254.000000,1254.000000,1254.000000,1254.000000,1254.000000,1254.000000,1254.000000
26,1255.000000,1255.000000,1255.000000,1255.000000,1255.000000,1255.000000,1255.000000,1255.000000
26,1256.000000,1256.000000,1256.000000,1256.000000,1256.000000,1256.000000,1256.000000,1256.000000
26,1257.000000,1257.000000,1257.000000,1257.000000,1257.000000,1257.000000,1257.000000,1257.000000
26,1258.000000,1258.000000,1258.000000,1258.000000,1258.000000,1258.000000,1258.000000,1258.000000
26,1259.000000,1259.000000,1259.000000,1259.000000,1259.000000,1259.000000,1259.000000,1259.000000
26,1260.000000,1260.000000,1260.000000,1260.000000,1260.000000,1260.000000,1260.000000,1260.000000
26,1261.000000,1261.000000,1261.000000,1261.000000,1261.000000,1261.000000,1261.000000,1261.000000
26,1262.000000,1262.000000,1262.000000,1262.000000,1262.000000,1262.000000,1262.000000,1262.000000
26,1263.000000,1263.000000,1263.000000,1263.000000,1263.000000,1263.000000,1263.000000,1263.000000
26,1264.000000,1264.000000,1264.000000,1264.000000,1264.000000,1264.000000,1264.000000,1264.000000
26,1265.000000,1265.000000,1265.000000,1265.000000,1265.000000,1265.000000,1265.000000,1265.000000
26,1266.000000,1266.000000,1266.000000,1266.000000,1266.000000,1266.000000,1266.000000,1266.000000
26,1267.000000,1267.000000,1267.000000,1267.000000,1267.000000,1267.000000,1267.000000,1267.000000
26,1268.000000,1268.000000,1268.000000,1268.000000,1268.000000,1268.000000,1268.000000,1268.000000
26,1269.000000,1269.000000,1269.000000,1269.000000,1269.000000,1269.000000,1269.000000,1269.000000
26,1270.000000,1270.000000,1270.000000,1270.000000,1270.000000,1270.000000,1270.000000,1270.000000
26,1271.000000,1271.000000,1271.000000,1271.000000,1271.000000,1271.000000,1271.000000,1271.000000
26,1272.000000,1272.000000,1272.000000,1272.000000,1272.000000,1272.000000,1272.000000,1272.000000
26,1273.000000,1273.000000,1273.000000,1273.000000,1273.000000,1273.000000,1273.000000,1273.000000
26,1274.000000,1274.000000,1274.000000,1274.000000,1274.000000,1274.000000,1274.000000,1274.000000
26,1275.000000,1275.000000,1275.000000,1275.000000,1275.000000,1275.000000,1275.000000,1275.000000
26,1276.000000,1276.000000,1276.000000,1276.000000,1276.000000,1276.000000,1276.000000,1276.000000
26,1277.000000,1277.000000,1277.000000,1277.000000,1277.000000,1277.000000,1277.000000,1277.000000
26,1278.000000,1278.000000,1278.000000,1278.000000,1278.000000,1278.000000,1278.000000,1278.000000
26,1279.000000,1279.000000,1279.000000,1279.000000,1279.000000,1279.000000,1279.000000,1279.000000
26,1280.000000,1280.000000,1280.000000,1280.000000,1280.000000,1280.000000,1280.000000,1280.000000
26,1281.000000,1281.000000,1281.000000,1281.000000,1281.000000,1281.000000,1281.000000,1281.000000
26,1282.000000,1282.000000,1282.000000,1282.000000,1282.000000,1282.000000,1282.000000,1282.000000
26,1283.000000,1283.000000,1283.000000,1283.000000,1283.000000,1283.000000,1283.000000,1283.000000
26,1284.000000,1284.000000,1284.000000,1284.000000,1284.000000,1284.000000,1284.000000,1284.000000
26,1285.000000,1285.000000,1285.000000,1285.000000,1285.000000,1285.000000,1285.000000,1285.000000
26,1286.000000,1286.000000,1286.000000,1286.000000,1286.000000,1286.000000,1286.000000,1286.000000
26,1287.000000,1287.000000,1287.000000,1287.000000,1287.000000,1287.000000,1287.000000,1287.000000
26,1288.000000,1288.000000,1288.000000,1288.000000,1288.000000,1288.000000,1288.000000,1288.000000
26,1289.000000,1289.000000,1289.000000,1289.000000,1289.000000,1289.000000,1289.000000,1289.000000
26,1290.000000,1290.000000,1290.000000,1290.000000,1290.000000,1290.000000,1290.000000,1290.000000
26,1291.000000,1291.000000,1291.000000,1291.000000,1291.000000,1291.000000,1291.000000,1291.000000
26,1292.000000,1292.000000,1292.000000,1292.000000,1292.000000,1292.000000,1292.000000,1292.000000
26,1293.000000,1293.000000,1293.000000,1293.000000,1293.000000,1293.000000,1293.000000,1293.000000
26,1294.000000,1294.000000,1294.000000,1294.000000,1294.000000,1294.000000,1294.000000,1294.000000
26,1295.000000,1295.000000,1295.000000,1295.000000,1295.000000,1295.000000,1295.000000,1295.000000
26,1296.000000,1296.000000,1296.000000,1296.000000,1296.000000,1296.000000,1296.000000,1296.000000
26,1297.000000,1297.000000,1297.000000,1297.000000,1297.000000,1297.000000,1297.000000,1297.000000
26,1298.000000,1298.000000,1298.000000,1298.000000,1298.000000,1298.000000,1298.000000,1298.000000
26,1299.000000,1299.000000,1299.000000,1299.000000,1299.000000,1299.000000,1299.000000,1299.000000
27,1300.000000,1300.000000,1300.000000,1300.000000,1300.000000,1300.000000,1300.000000,1300.000000
27,1301.000000,1301.000000,1301.000000,1301.000000,1301.000000,1301.000000,1301.000000,1301.000000
27,1302.000000,1302.000000,1302.000000,1302.000000,1302.000000,1302.000000,1302.000000,1302.000000
27,1303.000000,1303.000000,1303.000000,1303.000000,1303.000000,1303.000000,1303.000000,1303.000000
27,1304.000000,1304.000000,1304.000000,1304.000000,1304.000000,1304.000000,1304.000000,1304.000000
